SubjID,RunNum,TrialNum,ItemNum,ItemType,LangType,TrialOnset,RT,CorrectAnswer,Response,Accuracy
FED_20190306b_3T2,6,2,78,5,jap,10.0677,24.1987,3,4,0
FED_20190306b_3T2,6,3,42,3,en,39.3225,9.184,3,3,1
FED_20190306b_3T2,6,4,6,1,sent,53.558,10.1194,3,3,1
FED_20190306b_3T2,6,6,24,2,sent,78.7454,16.3994,4,4,1
FED_20190306b_3T2,6,7,60,4,en,100.199,9.0702,3,3,1
FED_20190306b_3T2,6,8,96,6,jap,114.3179,10.8352,2,2,1
FED_20190306b_3T2,7,2,61,4,sent,10.0597,20.6064,3,3,1
FED_20190306b_3T2,7,3,25,2,jap,35.7137,21.3282,3,2,0
FED_20190306b_3T2,7,4,97,6,en,62.0845,17.2002,1,1,1
FED_20190306b_3T2,7,6,79,5,en,94.3565,16.8935,2,1,0
FED_20190306b_3T2,7,7,7,1,jap,116.3103,8.1854,3,3,1
FED_20190306b_3T2,7,8,43,3,sent,129.5455,38.0966,2,2,1
FED_20190306b_3T2,12,2,84,5,jap,10.039,25.9631,2,2,1
FED_20190306b_3T2,12,3,48,3,en,41.0442,5.9646,2,2,1
FED_20190306b_3T2,12,4,12,1,sent,52.0626,16.6583,2,4,0
FED_20190306b_3T2,12,6,30,2,sent,83.8011,10.3697,2,2,1
FED_20190306b_3T2,12,7,66,4,en,99.23700000000001,5.2258,1,2,0
FED_20190306b_3T2,12,8,102,6,jap,109.5053,26.0214,1,1,1
FED_20190306b_3T2,1,2,55,4,sent,10.0407,7.5836,1,3,0
FED_20190306b_3T2,1,3,19,2,jap,22.6762,11.0115,2,4,0
FED_20190306b_3T2,1,4,91,6,en,38.7456,11.7392,2,1,0
FED_20190306b_3T2,1,6,73,5,en,65.5498,9.8024,1,1,1
FED_20190306b_3T2,1,7,1,1,jap,80.4022,13.6592,1,1,1
FED_20190306b_3T2,1,8,37,3,sent,99.12200000000001,21.8303,3,1,0
FED_20190306b_3T2,5,2,23,2,en,10.056000000000001,10.7697,3,3,1
FED_20190306b_3T2,5,3,95,6,sent,25.8918,17.3701,2,2,1
FED_20190306b_3T2,5,4,59,4,jap,48.3122,16.9358,1,1,1
FED_20190306b_3T2,5,6,41,3,jap,80.334,20.1634,1,1,1
FED_20190306b_3T2,5,7,77,5,sent,105.5215,15.804,4,4,1
FED_20190306b_3T2,5,8,5,1,en,126.3915,20.8931,3,4,0
FED_20190306b_3T2,4,2,40,3,sent,10.0493,16.4684,2,2,1
FED_20190306b_3T2,4,3,76,5,en,31.5528,12.7314,2,2,1
FED_20190306b_3T2,4,4,4,1,jap,49.3391,7.4788,4,4,1
FED_20190306b_3T2,4,6,22,2,jap,71.8927,10.5788,2,2,1
FED_20190306b_3T2,4,7,94,6,en,87.5287,11.8043,2,2,1
FED_20190306b_3T2,4,8,58,4,sent,104.3815,15.3163,2,2,1
FED_20190306b_3T2,2,2,2,1,en,10.0517,20.7297,2,1,0
FED_20190306b_3T2,2,3,38,3,jap,35.8395,8.6492,2,2,1
FED_20190306b_3T2,2,4,74,5,sent,49.5415,16.0886,4,4,1
FED_20190306b_3T2,2,6,92,6,sent,80.7134,31.9991,2,4,0
FED_20190306b_3T2,2,7,56,4,jap,117.7525,8.7855,2,2,1
FED_20190306b_3T2,2,8,20,2,en,131.5882,15.0204,3,3,1
FED_20190306b_3T2,3,2,93,6,jap,10.0598,10.4538,3,1,0
FED_20190306b_3T2,3,3,21,2,sent,25.5624,20.4126,3,2,0
FED_20190306b_3T2,3,4,57,4,en,51.0332,5.7271,1,1,1
FED_20190306b_3T2,3,6,39,3,en,71.8533,14.5747,1,1,1
FED_20190306b_3T2,3,7,3,1,sent,91.4898,14.1101,2,4,0
FED_20190306b_3T2,3,8,75,5,jap,110.6263,11.9487,2,2,1
FED_20190306b_3T2,8,2,8,1,en,10.0546,10.2596,2,2,1
FED_20190306b_3T2,8,3,44,3,jap,25.3404,8.1326,1,1,1
FED_20190306b_3T2,8,4,80,5,sent,38.5259,35.6578,3,3,1
FED_20190306b_3T2,8,6,98,6,sent,89.2843,12.3433,1,1,1
FED_20190306b_3T2,8,7,62,4,jap,106.6871,10.6616,4,2,0
FED_20190306b_3T2,8,8,26,2,en,122.3896,21.2742,3,4,0
FED_20190306b_3T2,9,2,99,6,jap,10.0645,9.6314,1,1,1
FED_20190306b_3T2,9,3,27,2,sent,24.7502,12.2864,1,4,0
FED_20190306b_3T2,9,4,63,4,en,42.0864,12.9443,4,4,1
FED_20190306b_3T2,9,6,45,3,en,70.1076,17.2393,1,1,1
FED_20190306b_3T2,9,7,9,1,sent,92.37799999999999,18.8505,2,2,1
FED_20190306b_3T2,9,8,81,5,jap,116.28200000000001,22.3933,2,4,0
FED_20190306b_3T2,11,2,29,2,en,10.0467,20.0973,2,2,1
FED_20190306b_3T2,11,3,101,6,sent,35.1839,10.9959,1,1,1
FED_20190306b_3T2,11,4,65,4,jap,51.2366,18.1957,1,1,1
FED_20190306b_3T2,11,6,47,3,jap,84.5254,29.9289,1,2,0
FED_20190306b_3T2,11,7,83,5,sent,119.5144,14.5348,3,1,0
FED_20190306b_3T2,11,8,11,1,en,139.101,15.3629,1,1,1
FED_20190306b_3T2,10,2,46,3,sent,10.0567,20.0947,1,1,1
FED_20190306b_3T2,10,3,82,5,en,35.2109,13.061,2,2,1
FED_20190306b_3T2,10,4,10,1,jap,53.3137,7.8552,2,2,1
FED_20190306b_3T2,10,6,28,2,jap,76.2508,38.3906,2,2,1
FED_20190306b_3T2,10,7,100,6,en,119.6912,15.379000000000001,2,2,1
FED_20190306b_3T2,10,8,64,4,sent,140.1279,18.2327,2,2,1
FED_20190215a_3T2,11,2,83,5,jap,10.047,21.2731,3,-1,0
FED_20190215a_3T2,11,3,47,3,en,36.3681,42.951,1,-1,0
FED_20190215a_3T2,11,4,11,1,sent,84.3758,24.5598,1,-1,0
FED_20190215a_3T2,11,6,29,2,sent,124.0322,34.1659,2,-1,0
FED_20190215a_3T2,11,7,65,4,en,163.2384,21.7488,1,-1,0
FED_20190215a_3T2,11,8,101,6,jap,190.043,11.1569,1,-1,0
FED_20190215a_3T2,10,2,28,2,en,10.0521,44.9062,2,-1,0
FED_20190215a_3T2,10,3,100,6,sent,60.0101,15.1977,2,-1,0
FED_20190215a_3T2,10,4,64,4,jap,80.2636,22.2323,2,-1,0
FED_20190215a_3T2,10,6,46,3,jap,117.5696,20.3662,1,-1,0
FED_20190215a_3T2,10,7,82,5,sent,142.9905,15.0214,2,-1,0
FED_20190215a_3T2,10,8,10,1,en,163.0603,18.3176,2,-1,0
FED_20190215a_3T2,6,2,60,4,sent,10.04,41.5649,3,-1,0
FED_20190215a_3T2,6,3,24,2,jap,56.6645,21.6925,4,2,0
FED_20190215a_3T2,6,4,96,6,en,83.3854,12.4584,2,-1,0
FED_20190215a_3T2,6,6,78,5,en,110.9231,23.3496,3,-1,0
FED_20190215a_3T2,6,7,6,1,jap,139.3279,41.3984,3,2,0
FED_20190215a_3T2,6,8,42,3,sent,185.7519,21.1203,3,-1,0
FED_20190215a_3T2,7,2,7,1,en,10.0525,7.6349,3,-1,0
FED_20190215a_3T2,7,3,43,3,jap,22.7379,27.2894,2,-1,0
FED_20190215a_3T2,7,4,79,5,sent,55.0766,49.6889,2,-1,0
FED_20190215a_3T2,7,6,97,6,sent,119.8372,30.6911,1,-1,0
FED_20190215a_3T2,7,7,61,4,jap,155.5929,11.4978,3,-1,0
FED_20190215a_3T2,7,8,25,2,en,172.1288,20.4658,3,4,0
FED_20190215a_3T2,1,2,1,1,en,10.0559,50.0006,1,-1,0
FED_20190215a_3T2,1,3,37,3,jap,65.1143,50.0006,3,-1,0
FED_20190215a_3T2,1,4,73,5,sent,120.1397,50.0006,1,-1,0
FED_20190215a_3T2,1,6,91,6,sent,185.217,50.0001,2,-1,0
FED_20190215a_3T2,1,7,55,4,jap,240.2761,50.0001,1,1,1
FED_20190215a_3T2,1,8,19,2,en,295.3183,50.0013,2,-1,0
FED_20190215a_3T2,5,2,77,5,jap,10.0444,21.4462,4,1,0
FED_20190215a_3T2,5,3,41,3,en,36.5486,43.562,1,-1,0
FED_20190215a_3T2,5,4,5,1,sent,85.1732,37.7687,3,-1,0
FED_20190215a_3T2,5,6,23,2,sent,138.0152,14.7288,3,-1,0
FED_20190215a_3T2,5,7,59,4,en,157.8018,21.4966,1,-1,0
FED_20190215a_3T2,5,8,95,6,jap,184.3561,16.5225,2,-1,0
FED_20190215a_3T2,4,2,22,2,en,10.054,13.3515,2,-1,0
FED_20190215a_3T2,4,3,94,6,sent,28.456999999999997,19.2446,2,-1,0
FED_20190215a_3T2,4,4,58,4,jap,52.744,20.9838,2,-1,0
FED_20190215a_3T2,4,6,40,3,jap,88.7999,19.3471,2,-1,0
FED_20190215a_3T2,4,7,76,5,sent,113.2041,29.7333,2,-1,0
FED_20190215a_3T2,4,8,4,1,en,147.993,16.1124,4,-1,0
FED_20190215a_3T2,12,2,66,4,sent,10.0563,26.3112,1,-1,0
FED_20190215a_3T2,12,3,30,2,jap,41.4112,38.8632,2,-1,0
FED_20190215a_3T2,12,4,102,6,en,85.3187,28.9606,1,-1,0
FED_20190215a_3T2,12,6,84,5,en,129.3591,21.6514,2,-1,0
FED_20190215a_3T2,12,7,12,1,jap,156.0635,50.0001,2,-1,0
FED_20190215a_3T2,12,8,48,3,sent,211.1055,26.078000000000003,2,-1,0
FED_20190215a_3T2,2,2,92,6,jap,10.0502,17.2912,2,-1,0
FED_20190215a_3T2,2,3,20,2,sent,32.3697,24.2159,3,3,1
FED_20190215a_3T2,2,4,56,4,en,61.6245,9.602,2,-1,0
FED_20190215a_3T2,2,6,38,3,en,86.3121,14.4192,2,-1,0
FED_20190215a_3T2,2,7,2,1,sent,105.7817,37.3471,2,-1,0
FED_20190215a_3T2,2,8,74,5,jap,148.1888,31.1975,4,-1,0
FED_20190215a_3T2,3,2,39,3,sent,10.0615,20.7708,1,-1,0
FED_20190215a_3T2,3,3,75,5,en,35.8823,24.8809,2,-1,0
FED_20190215a_3T2,3,4,3,1,jap,65.8206,20.7921,2,-1,0
FED_20190215a_3T2,3,6,21,2,jap,101.6931,30.9523,3,-1,0
FED_20190215a_3T2,3,7,93,6,en,137.6989,17.7931,3,3,1
FED_20190215a_3T2,3,8,57,4,sent,160.5191,19.9305,1,-1,0
FED_20190215a_3T2,8,2,98,6,jap,10.0527,17.6158,1,-1,0
FED_20190215a_3T2,8,3,26,2,sent,32.7063,19.6328,3,-1,0
FED_20190215a_3T2,8,4,62,4,en,57.3938,14.2758,4,-1,0
FED_20190215a_3T2,8,6,44,3,en,86.7318,16.4771,1,-1,0
FED_20190215a_3T2,8,7,8,1,sent,108.2353,13.9133,2,-1,0
FED_20190215a_3T2,8,8,80,5,jap,127.2051,20.6006,3,-1,0
FED_20190215a_3T2,9,2,45,3,sent,10.0456,31.9256,1,-1,0
FED_20190215a_3T2,9,3,81,5,en,47.0182,23.724,2,-1,0
FED_20190215a_3T2,9,4,9,1,jap,75.7728,14.8365,2,4,0
FED_20190215a_3T2,9,6,27,2,jap,105.7112,20.1801,1,-1,0
FED_20190215a_3T2,9,7,99,6,en,130.9487,25.6287,1,-1,0
FED_20190215a_3T2,9,8,63,4,sent,161.637,17.4357,4,-1,0
FED_20190307a_3T2,15,2,51,3,sent,10.0446,9.337,2,2,1
FED_20190307a_3T2,15,3,87,5,en,24.4469,21.936999999999998,3,3,1
FED_20190307a_3T2,15,4,15,1,jap,51.4347,15.3446,3,3,1
FED_20190307a_3T2,15,6,33,2,jap,81.8395,31.2273,3,3,1
FED_20190307a_3T2,15,7,105,6,en,118.1288,9.6151,2,2,1
FED_20190307a_3T2,15,8,69,4,sent,132.7979,23.6442,3,3,1
FED_20190307a_3T2,14,2,104,6,jap,10.057,10.2285,1,1,1
FED_20190307a_3T2,14,3,32,2,sent,25.3093,11.7462,2,2,1
FED_20190307a_3T2,14,4,68,4,en,42.1119,10.7568,2,2,1
FED_20190307a_3T2,14,6,50,3,en,67.9328,13.5994,3,3,1
FED_20190307a_3T2,14,7,14,1,sent,86.5858,12.3731,2,2,1
FED_20190307a_3T2,14,8,86,5,jap,104.0053,20.8797,2,2,1
FED_20190307a_3T2,5,2,77,5,jap,10.0478,37.7297,4,3,0
FED_20190307a_3T2,5,3,41,3,en,52.838,19.7906,1,1,1
FED_20190307a_3T2,5,4,5,1,sent,77.6755,50.0001,3,1,0
FED_20190307a_3T2,5,6,23,2,sent,142.7526,9.5695,3,3,1
FED_20190307a_3T2,5,7,59,4,en,157.3885,20.0659,1,1,1
FED_20190307a_3T2,5,8,95,6,jap,182.5092,11.1579,2,2,1
FED_20190307a_3T2,4,2,22,2,en,10.0568,14.5827,2,2,1
FED_20190307a_3T2,4,3,94,6,sent,29.6933,21.6468,2,2,1
FED_20190307a_3T2,4,4,58,4,jap,56.3642,34.429,2,2,1
FED_20190307a_3T2,4,6,40,3,jap,105.8556,9.5808,2,2,1
FED_20190307a_3T2,4,7,76,5,sent,120.4746,20.0615,2,2,1
FED_20190307a_3T2,4,8,4,1,en,145.5955,9.5004,4,2,0
FED_20190307a_3T2,2,2,92,6,jap,10.0584,14.2988,2,2,1
FED_20190307a_3T2,2,3,20,2,sent,29.3947,10.122,3,3,1
FED_20190307a_3T2,2,4,56,4,en,44.5806,6.5004,2,2,1
FED_20190307a_3T2,2,6,38,3,en,66.184,10.5595,2,2,1
FED_20190307a_3T2,2,7,2,1,sent,81.8033,28.3349,2,2,1
FED_20190307a_3T2,2,8,74,5,jap,115.1922,21.3544,4,3,0
FED_20190307a_3T2,3,2,39,3,sent,10.0477,8.5544,1,1,1
FED_20190307a_3T2,3,3,75,5,en,23.6331,15.2061,2,2,1
FED_20190307a_3T2,3,4,3,1,jap,43.9031,29.1827,2,2,1
FED_20190307a_3T2,3,6,21,2,jap,88.1603,19.4596,3,3,1
FED_20190307a_3T2,3,7,93,6,en,112.681,7.2641,3,3,1
FED_20190307a_3T2,3,8,57,4,sent,124.98299999999999,9.1786,1,1,1
FED_20190307a_3T2,8,2,98,6,jap,10.0458,12.3064,1,1,1
FED_20190307a_3T2,8,3,26,2,sent,27.3986,16.1923,3,3,1
FED_20190307a_3T2,8,4,62,4,en,48.6188,10.1865,4,4,1
FED_20190307a_3T2,8,6,44,3,en,73.8895,14.6402,1,2,0
FED_20190307a_3T2,8,7,8,1,sent,93.5761,12.9792,2,4,0
FED_20190307a_3T2,8,8,80,5,jap,111.5957,19.0553,3,3,1
FED_20190307a_3T2,9,2,45,3,sent,10.0536,24.5552,1,4,0
FED_20190307a_3T2,9,3,81,5,en,39.6584,39.6364,2,4,0
FED_20190307a_3T2,9,4,9,1,jap,84.3321,20.1335,2,2,1
FED_20190307a_3T2,9,6,27,2,jap,119.5379,22.0868,1,1,1
FED_20190307a_3T2,9,7,99,6,en,146.6924,10.7912,1,1,1
FED_20190307a_3T2,9,8,63,4,sent,162.5283,20.8686,4,4,1
FED_20190307a_3T2,12,2,66,4,sent,10.0521,14.6161,1,1,1
FED_20190307a_3T2,12,3,30,2,jap,29.7052,18.1578,2,2,1
FED_20190307a_3T2,12,4,102,6,en,52.9256,14.807,1,1,1
FED_20190307a_3T2,12,6,84,5,en,82.79700000000001,18.0635,2,2,1
FED_20190307a_3T2,12,7,12,1,jap,105.9176,21.8938,2,2,1
FED_20190307a_3T2,12,8,48,3,sent,132.8551,11.0754,2,2,1
FED_20190307a_3T2,13,2,13,1,en,10.0485,8.0174,3,3,1
FED_20190307a_3T2,13,3,49,3,jap,23.1173,9.3265,3,3,1
FED_20190307a_3T2,13,4,85,5,sent,37.503,13.5241,1,1,1
FED_20190307a_3T2,13,6,103,6,sent,66.1076,22.2861,2,2,1
FED_20190307a_3T2,13,7,67,4,jap,93.4455,14.1537,2,4,0
FED_20190307a_3T2,13,8,31,2,en,112.632,16.0475,1,1,1
FED_20190307a_3T2,6,2,60,4,sent,10.0588,10.613,3,3,1
FED_20190307a_3T2,6,3,24,2,jap,25.7279,40.6479,4,3,0
FED_20190307a_3T2,6,4,96,6,en,71.4187,8.3345,2,4,0
FED_20190307a_3T2,6,6,78,5,en,94.8392,15.2733,3,3,1
FED_20190307a_3T2,6,7,6,1,jap,115.1425,12.1341,3,3,1
FED_20190307a_3T2,6,8,42,3,sent,132.3286,10.115,3,3,1
FED_20190307a_3T2,7,2,7,1,en,10.0552,11.6054,3,3,1
FED_20190307a_3T2,7,3,43,3,jap,26.7079,32.6871,2,2,1
FED_20190307a_3T2,7,4,79,5,sent,64.4472,29.1331,2,2,1
FED_20190307a_3T2,7,6,97,6,sent,108.6545,12.7515,1,1,1
FED_20190307a_3T2,7,7,61,4,jap,126.4574,9.6626,3,3,1
FED_20190307a_3T2,7,8,25,2,en,141.1764,14.0146,3,3,1
FED_20190307a_3T2,11,2,83,5,jap,10.056000000000001,21.9807,3,3,1
FED_20190307a_3T2,11,3,47,3,en,37.0938,50.0014,1,3,0
FED_20190307a_3T2,11,4,11,1,sent,92.1528,40.9538,1,1,1
FED_20190307a_3T2,11,6,29,2,sent,148.1951,31.11,2,2,1
FED_20190307a_3T2,11,7,65,4,en,184.3344,12.3583,1,1,1
FED_20190307a_3T2,11,8,101,6,jap,201.75400000000002,11.4314,1,1,1
FED_20190307a_3T2,10,2,28,2,en,10.0479,18.7617,2,4,0
FED_20190307a_3T2,10,3,100,6,sent,33.8516,30.2689,2,2,1
FED_20190307a_3T2,10,4,64,4,jap,69.1575,15.1946,2,2,1
FED_20190307a_3T2,10,6,46,3,jap,99.4458,12.4273,1,1,1
FED_20190307a_3T2,10,7,82,5,sent,116.932,13.84,2,2,1
FED_20190307a_3T2,10,8,10,1,en,135.8184,21.8616,2,2,1
FED_20190307a_3T2,1,2,1,1,en,10.1491,11.5986,1,1,1
FED_20190307a_3T2,1,3,37,3,jap,26.8345,13.4362,3,3,1
FED_20190307a_3T2,1,4,73,5,sent,45.3375,16.7611,1,1,1
FED_20190307a_3T2,1,6,91,6,sent,77.1927,33.7381,2,2,1
FED_20190307a_3T2,1,7,55,4,jap,115.9823,8.5889,1,1,1
FED_20190307a_3T2,1,8,19,2,en,129.6179,14.9195,2,2,1
FED_20190307b_3T2,2,2,38,3,sent,10.0582,28.371,2,2,1
FED_20190307b_3T2,2,3,74,5,en,43.4801,24.89,4,3,0
FED_20190307b_3T2,2,4,2,1,jap,73.4351,45.1033,2,2,1
FED_20190307b_3T2,2,6,20,2,jap,133.6115,27.1057,3,3,1
FED_20190307b_3T2,2,7,92,6,en,165.7667,29.0484,2,2,1
FED_20190307b_3T2,2,8,56,4,sent,199.8726,24.6471,2,2,1
FED_20190307b_3T2,3,2,21,2,en,10.0471,28.0382,3,3,1
FED_20190307b_3T2,3,3,93,6,sent,43.1357,24.9406,3,3,1
FED_20190307b_3T2,3,4,57,4,jap,73.1241,19.5245,1,1,1
FED_20190307b_3T2,3,6,39,3,jap,107.7296,27.0516,1,1,1
FED_20190307b_3T2,3,7,75,5,sent,139.835,16.8312,2,2,1
FED_20190307b_3T2,3,8,3,1,en,161.7051,36.0726,2,2,1
FED_20190307b_3T2,8,2,44,3,sent,10.0414,15.683,1,1,1
FED_20190307b_3T2,8,3,80,5,en,30.7783,37.4895,3,3,1
FED_20190307b_3T2,8,4,8,1,jap,73.3017,40.2871,2,2,1
FED_20190307b_3T2,8,6,26,2,jap,128.6774,42.661,3,3,1
FED_20190307b_3T2,8,7,98,6,en,176.3685,29.4742,1,1,1
FED_20190307b_3T2,8,8,62,4,sent,210.891,30.1705,4,1,0
FED_20190307b_3T2,9,2,27,2,en,10.0552,18.5537,1,1,1
FED_20190307b_3T2,9,3,99,6,sent,33.659,35.4739,1,1,1
FED_20190307b_3T2,9,4,63,4,jap,74.1823,30.5301,4,4,1
FED_20190307b_3T2,9,6,45,3,jap,119.8062,19.4793,1,1,1
FED_20190307b_3T2,9,7,81,5,sent,144.3435,37.3928,2,3,0
FED_20190307b_3T2,9,8,9,1,en,186.8004,43.3279,2,2,1
FED_20190307b_3T2,5,2,59,4,sent,10.0539,43.4228,1,1,1
FED_20190307b_3T2,5,3,23,2,jap,58.5284,20.2054,3,3,1
FED_20190307b_3T2,5,4,95,6,en,83.7825,19.1637,2,2,1
FED_20190307b_3T2,5,6,77,5,en,118.0213,43.0727,4,4,1
FED_20190307b_3T2,5,7,5,1,jap,166.146,36.6582,3,3,1
FED_20190307b_3T2,5,8,41,3,sent,207.8694,50.0,1,3,0
FED_20190307b_3T2,4,2,76,5,jap,10.0574,42.744,2,2,1
FED_20190307b_3T2,4,3,40,3,en,57.8652,26.3332,2,2,1
FED_20190307b_3T2,4,4,4,1,sent,89.2537,25.6421,4,4,1
FED_20190307b_3T2,4,6,22,2,sent,129.9769,26.5847,2,2,1
FED_20190307b_3T2,4,7,58,4,en,161.6154,36.2005,2,2,1
FED_20190307b_3T2,4,8,94,6,jap,202.8555,26.3434,2,2,1
FED_20190307b_3T2,12,2,12,1,en,10.0575,25.3187,2,2,1
FED_20190307b_3T2,12,3,48,3,jap,40.429,18.1821,2,2,1
FED_20190307b_3T2,12,4,84,5,sent,63.6662,29.0165,2,2,1
FED_20190307b_3T2,12,6,102,6,sent,107.7733,46.5154,1,1,1
FED_20190307b_3T2,12,7,66,4,jap,159.332,12.7063,1,2,0
FED_20190307b_3T2,12,8,30,2,en,177.1016,34.7536,2,2,1
FED_20190307b_3T2,1,2,91,6,jap,10.0392,24.1503,2,2,1
FED_20190307b_3T2,1,3,19,2,sent,39.2441,50.0001,2,2,1
FED_20190307b_3T2,1,4,55,4,en,94.3031,19.732,1,3,0
FED_20190307b_3T2,1,6,37,3,en,129.1087,21.9829,3,3,1
FED_20190307b_3T2,1,7,1,1,sent,156.1297,21.3668,1,1,1
FED_20190307b_3T2,1,8,73,5,jap,182.5507,30.1067,1,1,1
FED_20190307b_3T2,10,2,82,5,jap,10.0668,18.089000000000002,2,2,1
FED_20190307b_3T2,10,3,46,3,en,33.2206,25.8116,1,1,1
FED_20190307b_3T2,10,4,10,1,sent,64.0924,18.4958,2,2,1
FED_20190307b_3T2,10,6,28,2,sent,97.6811,50.0003,2,-1,0
FED_20190307b_3T2,10,7,64,4,en,152.7401,19.633,2,1,0
FED_20190307b_3T2,10,8,100,6,jap,177.4107,27.0391,2,2,1
FED_20190307b_3T2,11,2,65,4,sent,10.0472,26.6571,1,1,1
FED_20190307b_3T2,11,3,29,2,jap,41.7524,29.9806,2,2,1
FED_20190307b_3T2,11,4,101,6,en,76.7915,23.3149,1,1,1
FED_20190307b_3T2,11,6,83,5,en,115.1809,25.0675,3,3,1
FED_20190307b_3T2,11,7,11,1,jap,145.3027,21.0765,1,1,1
FED_20190307b_3T2,11,8,47,3,sent,171.4236,50.001000000000005,1,4,0
FED_20190307b_3T2,6,2,6,1,en,10.0488,34.7554,3,3,1
FED_20190307b_3T2,6,3,42,3,jap,49.8552,15.276,3,3,1
FED_20190307b_3T2,6,4,78,5,sent,70.1586,20.7852,3,3,1
FED_20190307b_3T2,6,6,96,6,sent,106.031,11.4555,2,2,1
FED_20190307b_3T2,6,7,60,4,jap,122.5506,21.0093,3,3,1
FED_20190307b_3T2,6,8,24,2,en,148.6214,39.189,4,4,1
FED_20190307b_3T2,7,2,97,6,jap,10.0479,20.6236,1,1,1
FED_20190307b_3T2,7,3,25,2,sent,35.7187,39.1653,3,3,1
FED_20190307b_3T2,7,4,61,4,en,79.9425,16.5977,3,3,1
FED_20190307b_3T2,7,6,43,3,en,111.6143,48.9876,2,2,1
FED_20190307b_3T2,7,7,7,1,sent,165.6398,23.9322,3,3,1
FED_20190307b_3T2,7,8,79,5,jap,194.6279,41.2359,2,2,1
FED_20190320c_3T2,12,2,48,3,sent,10.0523,13.3543,2,2,1
FED_20190320c_3T2,12,3,84,5,en,28.4551,20.1891,2,2,1
FED_20190320c_3T2,12,4,12,1,jap,53.7093,23.9404,2,2,1
FED_20190320c_3T2,12,6,30,2,jap,92.7322,17.0287,2,2,1
FED_20190320c_3T2,12,7,102,6,en,114.8193,27.4219,1,1,1
FED_20190320c_3T2,12,8,66,4,sent,147.2912,25.7541,1,1,1
FED_20190320c_3T2,1,2,19,2,en,10.13,19.5527,2,2,1
FED_20190320c_3T2,1,3,91,6,sent,34.7834,41.5559,2,1,0
FED_20190320c_3T2,1,4,55,4,jap,81.3911,8.3827,1,1,1
FED_20190320c_3T2,1,6,37,3,jap,104.8448,14.4733,3,3,1
FED_20190320c_3T2,1,7,73,5,sent,124.3814,12.2879,1,1,1
FED_20190320c_3T2,1,8,1,1,en,141.7176,21.8577,1,1,1
FED_20190320c_3T2,6,2,42,3,sent,10.0429,12.2459,3,3,1
FED_20190320c_3T2,6,3,78,5,en,27.3458,19.4541,3,3,1
FED_20190320c_3T2,6,4,6,1,jap,51.8498,31.6483,3,3,1
FED_20190320c_3T2,6,6,24,2,jap,98.574,45.3545,4,4,1
FED_20190320c_3T2,6,7,96,6,en,148.9822,14.3227,2,2,1
FED_20190320c_3T2,6,8,60,4,sent,168.352,24.3965,3,1,0
FED_20190320c_3T2,7,2,25,2,en,10.0573,22.4527,3,3,1
FED_20190320c_3T2,7,3,97,6,sent,37.5617,16.6029,1,1,1
FED_20190320c_3T2,7,4,61,4,jap,59.232,12.2999,3,3,1
FED_20190320c_3T2,7,6,43,3,jap,86.6031,50.0013,2,4,0
FED_20190320c_3T2,7,7,79,5,sent,141.6621,29.3075,2,3,0
FED_20190320c_3T2,7,8,7,1,en,176.00099999999998,12.3872,3,3,1
FED_20190320c_3T2,2,2,74,5,jap,10.0558,27.0775,4,3,0
FED_20190320c_3T2,2,3,38,3,en,42.1774,15.122,2,2,1
FED_20190320c_3T2,2,4,2,1,sent,62.3641,43.3805,2,4,0
FED_20190320c_3T2,2,6,20,2,sent,120.8237,21.2871,3,3,1
FED_20190320c_3T2,2,7,56,4,en,147.1612,7.8285,2,2,1
FED_20190320c_3T2,2,8,92,6,jap,160.0468,26.9568,2,3,0
FED_20190320c_3T2,3,2,57,4,sent,10.0643,6.1657,1,1,1
FED_20190320c_3T2,3,3,21,2,jap,21.2828,12.2038,3,4,0
FED_20190320c_3T2,3,4,93,6,en,38.5356,16.7672,3,3,1
FED_20190320c_3T2,3,6,75,5,en,70.3741,17.1062,2,2,1
FED_20190320c_3T2,3,7,3,1,jap,92.5444,35.8011,2,2,1
FED_20190320c_3T2,3,8,39,3,sent,133.4011,16.1446,1,1,1
FED_20190320c_3T2,8,2,80,5,jap,10.0521,30.5118,3,3,1
FED_20190320c_3T2,8,3,44,3,en,45.6248,14.8831,1,1,1
FED_20190320c_3T2,8,4,8,1,sent,65.5611,14.6834,2,2,1
FED_20190320c_3T2,8,6,26,2,sent,95.316,16.8066,3,3,1
FED_20190320c_3T2,8,7,62,4,en,117.1862,18.3534,4,4,1
FED_20190320c_3T2,8,8,98,6,jap,140.5899,15.9515,1,1,1
FED_20190320c_3T2,9,2,63,4,sent,10.0428,12.9506,4,4,1
FED_20190320c_3T2,9,3,27,2,jap,28.0458,20.8425,1,1,1
FED_20190320c_3T2,9,4,99,6,en,53.9502,19.4779,1,1,1
FED_20190320c_3T2,9,6,81,5,en,88.5223,50.0006,2,2,1
FED_20190320c_3T2,9,7,9,1,jap,143.5811,24.4483,2,2,1
FED_20190320c_3T2,9,8,45,3,sent,173.0861,34.842,1,1,1
FED_20190320c_3T2,11,2,101,6,jap,10.0632,10.786,1,1,1
FED_20190320c_3T2,11,3,29,2,sent,25.8989,39.8741,2,2,1
FED_20190320c_3T2,11,4,65,4,en,70.8228,16.1209,1,1,1
FED_20190320c_3T2,11,6,47,3,en,102.02799999999999,30.9625,1,1,1
FED_20190320c_3T2,11,7,11,1,sent,138.0338,23.0842,1,1,1
FED_20190320c_3T2,11,8,83,5,jap,166.172,19.839000000000002,3,1,0
FED_20190320c_3T2,10,2,10,1,en,10.0528,13.2781,2,3,0
FED_20190320c_3T2,10,3,46,3,jap,28.3724,16.6263,1,1,1
FED_20190320c_3T2,10,4,82,5,sent,50.0594,12.4717,2,2,1
FED_20190320c_3T2,10,6,100,6,sent,77.5971,25.6852,2,2,1
FED_20190320c_3T2,10,7,64,4,jap,108.3354,15.4573,2,1,0
FED_20190320c_3T2,10,8,28,2,en,128.8388,33.8194,2,3,0
FED_20190320c_3T2,5,2,95,6,jap,10.051,15.8355,2,2,1
FED_20190320c_3T2,5,3,23,2,sent,30.9376,9.8605,3,3,1
FED_20190320c_3T2,5,4,59,4,en,45.8566,15.1144,1,1,1
FED_20190320c_3T2,5,6,41,3,en,76.0784,37.3263,1,1,1
FED_20190320c_3T2,5,7,5,1,sent,118.4518,35.0911,3,1,0
FED_20190320c_3T2,5,8,77,5,jap,158.5919,39.195,4,4,1
FED_20190320c_3T2,4,2,4,1,en,10.0414,8.8984,4,4,1
FED_20190320c_3T2,4,3,40,3,jap,23.9937,17.2405,2,2,1
FED_20190320c_3T2,4,4,76,5,sent,46.2807,21.9102,2,2,1
FED_20190320c_3T2,4,6,94,6,sent,83.2532,24.4089,2,2,1
FED_20190320c_3T2,4,7,58,4,jap,112.7081,15.4953,2,2,1
FED_20190320c_3T2,4,8,22,2,en,133.2448,13.7848,2,2,1
FED_20190418a_3T2,10,2,28,2,en,10.0545,30.0046,2,3,0
FED_20190418a_3T2,10,3,100,6,sent,45.1269,19.0389,2,2,1
FED_20190418a_3T2,10,4,64,4,jap,69.2141,7.0262,2,2,1
FED_20190418a_3T2,10,6,46,3,jap,91.3343,13.6435,1,1,1
FED_20190418a_3T2,10,7,82,5,sent,110.0374,13.568,2,2,1
FED_20190418a_3T2,10,8,10,1,en,128.6403,12.6189,2,4,0
FED_20190418a_3T2,11,2,83,5,jap,10.0487,14.8899,3,3,1
FED_20190418a_3T2,11,3,47,3,en,30.0017,8.3419,1,1,1
FED_20190418a_3T2,11,4,11,1,sent,43.3872,13.300999999999998,1,1,1
FED_20190418a_3T2,11,6,29,2,sent,71.792,21.7001,2,2,1
FED_20190418a_3T2,11,7,65,4,en,98.5463,12.6537,1,1,1
FED_20190418a_3T2,11,8,101,6,jap,116.2494,7.2672,1,1,1
FED_20190418a_3T2,8,2,98,6,jap,10.0478,8.475,1,4,0
FED_20190418a_3T2,8,3,26,2,sent,23.5836,12.0879,3,1,0
FED_20190418a_3T2,8,4,62,4,en,40.7364,11.2524,4,4,1
FED_20190418a_3T2,8,6,44,3,en,67.0573,9.3233,1,2,0
FED_20190418a_3T2,8,7,8,1,sent,81.4095,11.2963,2,2,1
FED_20190418a_3T2,8,8,80,5,jap,97.7624,17.8721,3,3,1
FED_20190418a_3T2,9,2,45,3,sent,10.0478,12.5541,1,1,1
FED_20190418a_3T2,9,3,81,5,en,27.6673,16.3536,2,3,0
FED_20190418a_3T2,9,4,9,1,jap,49.0708,14.6871,2,2,1
FED_20190418a_3T2,9,6,27,2,jap,78.8424,19.0271,1,1,1
FED_20190418a_3T2,9,7,99,6,en,102.9128,9.1787,1,1,1
FED_20190418a_3T2,9,8,63,4,sent,117.1487,12.0116,4,4,1
FED_20190418a_3T2,2,2,92,6,jap,10.0457,10.356,2,2,1
FED_20190418a_3T2,2,3,20,2,sent,25.4649,12.0631,3,3,1
FED_20190418a_3T2,2,4,56,4,en,42.5676,10.4996,2,2,1
FED_20190418a_3T2,2,6,38,3,en,68.1384,7.9717,2,2,1
FED_20190418a_3T2,2,7,2,1,sent,81.1574,46.6236,2,2,1
FED_20190418a_3T2,2,8,74,5,jap,132.849,17.6429,4,3,0
FED_20190418a_3T2,3,2,39,3,sent,10.0536,7.5259,1,1,1
FED_20190418a_3T2,3,3,75,5,en,22.639,12.6274,2,2,1
FED_20190418a_3T2,3,4,3,1,jap,40.3085,27.7104,2,2,1
FED_20190418a_3T2,3,6,21,2,jap,83.0821,16.8733,3,3,1
FED_20190418a_3T2,3,7,93,6,en,104.9856,6.0494,3,3,1
FED_20190418a_3T2,3,8,57,4,sent,116.0875,6.1773,1,1,1
FED_20190418a_3T2,5,2,77,5,jap,10.0526,13.6255,4,4,1
FED_20190418a_3T2,5,3,41,3,en,28.7389,12.5304,1,2,0
FED_20190418a_3T2,5,4,5,1,sent,46.3253,22.9951,3,4,0
FED_20190418a_3T2,5,6,23,2,sent,84.398,13.2283,3,3,1
FED_20190418a_3T2,5,7,59,4,en,102.6509,12.055,1,1,1
FED_20190418a_3T2,5,8,95,6,jap,119.7538,9.384,2,2,1
FED_20190418a_3T2,4,2,22,2,en,10.0617,7.0846,2,2,1
FED_20190418a_3T2,4,3,94,6,sent,22.1801,14.9121,2,2,1
FED_20190418a_3T2,4,4,58,4,jap,42.1502,15.7875,2,2,1
FED_20190418a_3T2,4,6,40,3,jap,73.0218,9.2355,2,2,1
FED_20190418a_3T2,4,7,76,5,sent,87.2906,9.7697,2,2,1
FED_20190418a_3T2,4,8,4,1,en,102.1099,6.4487,4,1,0
FED_20190418a_3T2,1,2,1,1,en,10.1372,5.9727,1,3,0
FED_20190418a_3T2,1,3,37,3,jap,21.2053,11.4535,3,1,0
FED_20190418a_3T2,1,4,73,5,sent,37.7079,19.7046,1,1,1
FED_20190418a_3T2,1,6,91,6,sent,72.4801,33.0571,2,2,1
FED_20190418a_3T2,1,7,55,4,jap,110.6032,5.9008,1,3,0
FED_20190418a_3T2,1,8,19,2,en,121.5547,14.4802,2,2,1
FED_20190418a_3T2,12,2,66,4,sent,10.057,11.8084,1,1,1
FED_20190418a_3T2,12,3,30,2,jap,26.8928,14.7722,2,4,0
FED_20190418a_3T2,12,4,102,6,en,46.7295,21.8578,1,1,1
FED_20190418a_3T2,12,6,84,5,en,83.669,8.5536,2,2,1
FED_20190418a_3T2,12,7,12,1,jap,97.2712,17.9895,2,2,1
FED_20190418a_3T2,12,8,48,3,sent,120.30799999999999,10.8606,2,2,1
FED_20190418a_3T2,6,2,60,4,sent,10.0424,18.8937,3,2,0
FED_20190418a_3T2,6,3,24,2,jap,33.9795,13.9187,4,4,1
FED_20190418a_3T2,6,4,96,6,en,52.9492,5.1907,2,2,1
FED_20190418a_3T2,6,6,78,5,en,73.2358,10.3978,3,3,1
FED_20190418a_3T2,6,7,6,1,jap,88.6885,17.1378,3,3,1
FED_20190418a_3T2,6,8,42,3,sent,110.8755,9.7865,3,3,1
FED_20190418a_3T2,7,2,7,1,en,10.0523,5.0044,3,4,0
FED_20190418a_3T2,7,3,43,3,jap,20.1206,13.6882,2,2,1
FED_20190418a_3T2,7,4,79,5,sent,38.857,17.6435,2,2,1
FED_20190418a_3T2,7,6,97,6,sent,71.5957,15.7852,1,4,0
FED_20190418a_3T2,7,7,61,4,jap,92.4323,11.1077,3,3,1
FED_20190418a_3T2,7,8,25,2,en,108.585,10.243,3,3,1
FED_20190320d_3T2,11,2,47,3,sent,10.0546,26.1505,1,4,0
FED_20190320d_3T2,11,3,83,5,en,41.2597,13.7241,3,3,1
FED_20190320d_3T2,11,4,11,1,jap,60.0459,21.8228,1,1,1
FED_20190320d_3T2,11,6,29,2,jap,96.9685,24.1665,2,2,1
FED_20190320d_3T2,11,7,101,6,en,126.19,8.9938,1,1,1
FED_20190320d_3T2,11,8,65,4,sent,140.2089,10.5912,1,4,0
FED_20190320d_3T2,10,2,100,6,jap,10.058,10.7085,2,2,1
FED_20190320d_3T2,10,3,28,2,sent,25.8107,34.222,2,2,1
FED_20190320d_3T2,10,4,64,4,en,65.0837,11.3809,2,1,0
FED_20190320d_3T2,10,6,46,3,en,91.5545,16.7873,1,1,1
FED_20190320d_3T2,10,7,10,1,sent,113.4081,15.9989,2,2,1
FED_20190320d_3T2,10,8,82,5,jap,134.4617,16.1741,2,2,1
FED_20190320d_3T2,6,2,24,2,en,10.0684,20.3687,4,4,1
FED_20190320d_3T2,6,3,96,6,sent,35.4893,15.8861,2,2,1
FED_20190320d_3T2,6,4,60,4,jap,56.4261,7.4418,3,3,1
FED_20190320d_3T2,6,6,42,3,jap,78.96300000000001,12.5275,3,3,1
FED_20190320d_3T2,6,7,78,5,sent,96.5492,13.6403,3,3,1
FED_20190320d_3T2,6,8,6,1,en,115.2357,16.8401,3,3,1
FED_20190320d_3T2,7,2,79,5,jap,10.0496,28.8838,2,2,1
FED_20190320d_3T2,7,3,43,3,en,43.9885,31.0979,2,2,1
FED_20190320d_3T2,7,4,7,1,sent,80.1441,10.9833,3,3,1
FED_20190320d_3T2,7,6,25,2,sent,106.1984,16.2389,3,3,1
FED_20190320d_3T2,7,7,61,4,en,127.4852,10.8475,3,3,1
FED_20190320d_3T2,7,8,97,6,jap,143.3878,11.9707,1,1,1
FED_20190320d_3T2,1,2,73,5,jap,10.0469,13.9097,1,1,1
FED_20190320d_3T2,1,3,37,3,en,28.9998,18.9476,3,3,1
FED_20190320d_3T2,1,4,1,1,sent,53.0037,23.8694,1,1,1
FED_20190320d_3T2,1,6,19,2,sent,91.9768,44.537,2,1,0
FED_20190320d_3T2,1,7,55,4,en,141.5683,6.0239,1,1,1
FED_20190320d_3T2,1,8,91,6,jap,152.6532,19.4777,2,2,1
FED_20190320d_3T2,12,2,30,2,en,10.0478,22.4646,2,4,0
FED_20190320d_3T2,12,3,102,6,sent,37.5356,29.8066,1,1,1
FED_20190320d_3T2,12,4,66,4,jap,72.3747,7.2875,1,1,1
FED_20190320d_3T2,12,6,48,3,jap,94.7449,10.0209,2,2,1
FED_20190320d_3T2,12,7,84,5,sent,109.7974,12.7715,2,2,1
FED_20190320d_3T2,12,8,12,1,en,127.6338,23.9122,2,2,1
FED_20190320d_3T2,5,2,41,3,sent,10.0668,31.1793,1,1,1
FED_20190320d_3T2,5,3,77,5,en,46.2894,20.816,4,1,0
FED_20190320d_3T2,5,4,5,1,jap,72.1603,15.4981,3,3,1
FED_20190320d_3T2,5,6,23,2,jap,102.7485,20.9049,3,1,0
FED_20190320d_3T2,5,7,95,6,en,128.7027,13.1164,2,2,1
FED_20190320d_3T2,5,8,59,4,sent,146.8724,31.8166,1,1,1
FED_20190320d_3T2,4,2,94,6,jap,10.0541,17.7146,2,2,1
FED_20190320d_3T2,4,3,22,2,sent,32.8079,20.4502,2,2,1
FED_20190320d_3T2,4,4,58,4,en,58.2951,27.2317,2,1,0
FED_20190320d_3T2,4,6,40,3,en,100.6188,6.9097,2,2,1
FED_20190320d_3T2,4,7,4,1,sent,112.5874,10.9115,4,1,0
FED_20190320d_3T2,4,8,76,5,jap,128.54,22.2756,2,3,0
FED_20190320d_3T2,8,2,62,4,sent,10.0421,12.1303,4,4,1
FED_20190320d_3T2,8,3,26,2,jap,27.2285,10.4467,3,4,0
FED_20190320d_3T2,8,4,98,6,en,42.7141,16.3966,1,1,1
FED_20190320d_3T2,8,6,80,5,en,74.2028,28.0721,3,3,1
FED_20190320d_3T2,8,7,8,1,jap,107.3414,9.5358,2,2,1
FED_20190320d_3T2,8,8,44,3,sent,121.9271,15.5205,1,2,0
FED_20190320d_3T2,9,2,9,1,en,10.0548,18.0499,2,2,1
FED_20190320d_3T2,9,3,45,3,jap,33.1587,11.3423,1,1,1
FED_20190320d_3T2,9,4,81,5,sent,49.5445,20.2252,2,1,0
FED_20190320d_3T2,9,6,99,6,sent,84.8669,10.3742,1,1,1
FED_20190320d_3T2,9,7,63,4,jap,100.3029,17.4901,4,1,0
FED_20190320d_3T2,9,8,27,2,en,122.8232,18.6868,1,1,1
FED_20190320d_3T2,2,2,56,4,sent,10.054,5.5365,2,2,1
FED_20190320d_3T2,2,3,20,2,jap,20.6557,16.3284,3,1,0
FED_20190320d_3T2,2,4,92,6,en,42.0426,27.8517,2,2,1
FED_20190320d_3T2,2,6,74,5,en,84.9661,22.122,4,3,0
FED_20190320d_3T2,2,7,2,1,jap,112.1373,22.6466,2,2,1
FED_20190320d_3T2,2,8,38,3,sent,139.8253,14.0331,2,2,1
FED_20190320d_3T2,3,2,3,1,en,10.0465,23.4457,2,2,1
FED_20190320d_3T2,3,3,39,3,jap,38.5511,8.4054,1,1,1
FED_20190320d_3T2,3,4,75,5,sent,52.0032,8.4631,2,2,1
FED_20190320d_3T2,3,6,93,6,sent,75.5405,32.0638,3,3,1
FED_20190320d_3T2,3,7,57,4,jap,112.6634,12.4264,1,1,1
FED_20190320d_3T2,3,8,21,2,en,130.116,25.7591,3,3,1
FED_20190321a_3T2,3,2,93,6,jap,10.0531,9.4371,3,3,1
FED_20190321a_3T2,3,3,21,2,sent,24.5553,36.9697,3,3,1
FED_20190321a_3T2,3,4,57,4,en,66.5788,9.811,1,1,1
FED_20190321a_3T2,3,6,39,3,en,91.4828,19.1691,1,1,1
FED_20190321a_3T2,3,7,3,1,sent,115.7036,42.9583,2,2,1
FED_20190321a_3T2,3,8,75,5,jap,163.7279,18.3889,2,2,1
FED_20190321a_3T2,2,2,2,1,en,10.0608,33.9124,2,2,1
FED_20190321a_3T2,2,3,38,3,jap,49.0338,15.2383,2,2,1
FED_20190321a_3T2,2,4,74,5,sent,69.3205,11.7135,4,1,0
FED_20190321a_3T2,2,6,92,6,sent,96.1248,39.8701,2,2,1
FED_20190321a_3T2,2,7,56,4,jap,141.0488,10.489,2,2,1
FED_20190321a_3T2,2,8,20,2,en,156.6014,10.7003,3,3,1
FED_20190321a_3T2,9,2,99,6,jap,10.0456,12.4478,1,1,1
FED_20190321a_3T2,9,3,27,2,sent,27.5318,17.1186,1,1,1
FED_20190321a_3T2,9,4,63,4,en,49.702,14.0264,4,2,0
FED_20190321a_3T2,9,6,45,3,en,78.7902,13.4029,1,1,1
FED_20190321a_3T2,9,7,9,1,sent,97.2431,27.118000000000002,2,2,1
FED_20190321a_3T2,9,8,81,5,jap,129.3984,27.2599,2,2,1
FED_20190321a_3T2,8,2,8,1,en,10.0525,10.8573,2,2,1
FED_20190321a_3T2,8,3,44,3,jap,25.9383,16.9737,1,1,1
FED_20190321a_3T2,8,4,80,5,sent,47.9753,47.4256,3,2,0
FED_20190321a_3T2,8,6,98,6,sent,110.4854,12.5403,1,1,1
FED_20190321a_3T2,8,7,62,4,jap,128.055,12.0786,4,2,0
FED_20190321a_3T2,8,8,26,2,en,145.191,25.4452,3,3,1
FED_20190321a_3T2,11,2,29,2,en,10.0469,16.2735,2,2,1
FED_20190321a_3T2,11,3,101,6,sent,31.3504,11.321,1,2,0
FED_20190321a_3T2,11,4,65,4,jap,47.7363,15.1263,1,1,1
FED_20190321a_3T2,11,6,47,3,jap,77.9246,29.5771,1,1,1
FED_20190321a_3T2,11,7,83,5,sent,112.5636,19.9288,3,3,1
FED_20190321a_3T2,11,8,11,1,en,137.5511,9.9028,1,4,0
FED_20190321a_3T2,10,2,46,3,sent,10.0688,26.1179,1,1,1
FED_20190321a_3T2,10,3,82,5,en,41.2239,10.5294,2,2,1
FED_20190321a_3T2,10,4,10,1,jap,56.8099,22.2747,2,2,1
FED_20190321a_3T2,10,6,28,2,jap,94.1659,37.1543,2,2,1
FED_20190321a_3T2,10,7,100,6,en,136.3895,14.4678,2,2,1
FED_20190321a_3T2,10,8,64,4,sent,155.9094,24.1346,2,2,1
FED_20190321a_3T2,4,2,40,3,sent,10.0461,16.9132,2,2,1
FED_20190321a_3T2,4,3,76,5,en,31.9828,24.4142,2,2,1
FED_20190321a_3T2,4,4,4,1,jap,61.4376,13.3211,4,4,1
FED_20190321a_3T2,4,6,22,2,jap,89.8423,19.5167,2,2,1
FED_20190321a_3T2,4,7,94,6,en,114.413,15.1383,2,2,1
FED_20190321a_3T2,4,8,58,4,sent,134.583,17.6317,2,2,1
FED_20190321a_3T2,5,2,23,2,en,10.0536,10.6946,3,3,1
FED_20190321a_3T2,5,3,95,6,sent,25.7726,16.436,2,2,1
FED_20190321a_3T2,5,4,59,4,jap,47.2595,17.224,1,1,1
FED_20190321a_3T2,5,6,41,3,jap,79.5647,23.3739,1,1,1
FED_20190321a_3T2,5,7,77,5,sent,107.986,22.4689,4,2,0
FED_20190321a_3T2,5,8,5,1,en,135.5073,14.5455,3,3,1
FED_20190321a_3T2,1,2,55,4,sent,10.1243,50.001999999999995,1,-1,0
FED_20190321a_3T2,1,3,19,2,jap,65.2327,50.0005,2,4,0
FED_20190321a_3T2,1,4,91,6,en,120.2917,50.001000000000005,2,2,1
FED_20190321a_3T2,1,6,73,5,en,185.3521,50.0012,1,1,1
FED_20190321a_3T2,1,7,1,1,jap,240.3779,50.0006,1,1,1
FED_20190321a_3T2,1,8,37,3,sent,295.4368,50.0,3,3,1
FED_20190321a_3T2,12,2,84,5,jap,10.0425,24.6125,2,2,1
FED_20190321a_3T2,12,3,48,3,en,39.6973,13.2461,2,2,1
FED_20190321a_3T2,12,4,12,1,sent,58.0002,41.6652,2,2,1
FED_20190321a_3T2,12,6,30,2,sent,114.726,13.407,2,2,1
FED_20190321a_3T2,12,7,66,4,en,133.179,9.5546,1,1,1
FED_20190321a_3T2,12,8,102,6,jap,147.7813,22.4743,1,1,1
FED_20190321a_3T2,7,2,61,4,sent,10.0604,17.2364,3,3,1
FED_20190321a_3T2,7,3,25,2,jap,32.3474,22.3807,3,3,1
FED_20190321a_3T2,7,4,97,6,en,59.7852,15.8329,1,1,1
FED_20190321a_3T2,7,6,79,5,en,90.6902,24.625,2,2,1
FED_20190321a_3T2,7,7,7,1,jap,120.3616,8.9283,3,3,1
FED_20190321a_3T2,7,8,43,3,sent,134.3472,30.7486,2,2,1
FED_20190321a_3T2,6,2,78,5,jap,10.0474,15.5018,3,3,1
FED_20190321a_3T2,6,3,42,3,en,30.6007,7.0712,3,3,1
FED_20190321a_3T2,6,4,6,1,sent,42.7193,27.3982,3,3,1
FED_20190321a_3T2,6,6,24,2,sent,85.2096,14.1967,4,4,1
FED_20190321a_3T2,6,7,60,4,en,104.4629,10.4663,3,3,1
FED_20190321a_3T2,6,8,96,6,jap,119.98200000000001,6.7468,2,2,1
FED_20190415b_3T2,5,2,59,4,sent,10.056000000000001,23.3946,1,1,1
FED_20190415b_3T2,5,3,23,2,jap,38.477,27.1652,3,3,1
FED_20190415b_3T2,5,4,95,6,en,70.6822,11.7684,2,2,1
FED_20190415b_3T2,5,6,77,5,en,97.5367,17.6494,4,4,1
FED_20190415b_3T2,5,7,5,1,jap,120.2406,23.0858,3,3,1
FED_20190415b_3T2,5,8,41,3,sent,148.3784,34.4085,1,2,0
FED_20190415b_3T2,4,2,76,5,jap,10.0458,10.9311,2,4,0
FED_20190415b_3T2,4,3,40,3,en,26.0318,6.9694,2,1,0
FED_20190415b_3T2,4,4,4,1,sent,38.0511,10.7971,4,4,1
FED_20190415b_3T2,4,6,22,2,sent,63.938,13.2383,2,4,0
FED_20190415b_3T2,4,7,58,4,en,82.2243,12.5312,2,2,1
FED_20190415b_3T2,4,8,94,6,jap,99.7936,8.4977,2,2,1
FED_20190415b_3T2,8,2,44,3,sent,10.0599,7.5435,1,2,0
FED_20190415b_3T2,8,3,80,5,en,22.6284,16.6342,3,3,1
FED_20190415b_3T2,8,4,8,1,jap,44.3154,10.0565,2,2,1
FED_20190415b_3T2,8,6,26,2,jap,69.4363,27.787,3,3,1
FED_20190415b_3T2,8,7,98,6,en,102.275,14.1459,1,4,0
FED_20190415b_3T2,8,8,62,4,sent,121.4611,9.5183,4,4,1
FED_20190415b_3T2,9,2,27,2,en,10.0543,19.101,1,1,1
FED_20190415b_3T2,9,3,99,6,sent,34.225,12.4132,1,1,1
FED_20190415b_3T2,9,4,63,4,jap,51.6945,7.6662,4,4,1
FED_20190415b_3T2,9,6,45,3,jap,74.4482,12.482999999999999,1,1,1
FED_20190415b_3T2,9,7,81,5,sent,91.9846,17.4249,2,2,1
FED_20190415b_3T2,9,8,9,1,en,114.4547,27.1317,2,2,1
FED_20190415b_3T2,11,2,65,4,sent,10.0561,8.4452,1,1,1
FED_20190415b_3T2,11,3,29,2,jap,23.5583,20.5337,2,4,0
FED_20190415b_3T2,11,4,101,6,en,49.1458,8.6328,1,1,1
FED_20190415b_3T2,11,6,83,5,en,72.8664,17.0453,3,3,1
FED_20190415b_3T2,11,7,11,1,jap,94.95299999999999,14.1035,1,1,1
FED_20190415b_3T2,11,8,47,3,sent,114.1064,43.4,1,1,1
FED_20190415b_3T2,10,2,82,5,jap,10.0616,11.0845,2,2,1
FED_20190415b_3T2,10,3,46,3,en,26.1977,20.8509,1,1,1
FED_20190415b_3T2,10,4,10,1,sent,52.102,14.8542,2,2,1
FED_20190415b_3T2,10,6,28,2,sent,82.04,33.7437,2,2,1
FED_20190415b_3T2,10,7,64,4,en,120.8297,8.7809,2,4,0
FED_20190415b_3T2,10,8,100,6,jap,134.6654,19.2716,2,2,1
FED_20190415b_3T2,2,2,38,3,sent,10.0632,13.6146,2,2,1
FED_20190415b_3T2,2,3,74,5,en,28.715999999999998,13.8005,4,2,0
FED_20190415b_3T2,2,4,2,1,jap,47.5692,41.3904,2,4,0
FED_20190415b_3T2,2,6,20,2,jap,104.0283,13.4372,3,3,1
FED_20190415b_3T2,2,7,92,6,en,122.5146,9.2577,2,2,1
FED_20190415b_3T2,2,8,56,4,sent,136.8171,15.8733,2,2,1
FED_20190415b_3T2,3,2,21,2,en,10.0356,22.9602,3,1,0
FED_20190415b_3T2,3,3,93,6,sent,38.056999999999995,9.2242,3,3,1
FED_20190415b_3T2,3,4,57,4,jap,52.3091,28.0089,1,1,1
FED_20190415b_3T2,3,6,39,3,jap,95.3997,7.917999999999999,1,1,1
FED_20190415b_3T2,3,7,75,5,sent,108.385,6.5477,2,2,1
FED_20190415b_3T2,3,8,3,1,en,119.9869,35.2068,2,4,0
FED_20190415b_3T2,6,2,6,1,en,10.0616,10.8134,3,3,1
FED_20190415b_3T2,6,3,42,3,jap,25.9308,5.0054,3,3,1
FED_20190415b_3T2,6,4,78,5,sent,35.9825,10.0771,3,3,1
FED_20190415b_3T2,6,6,96,6,sent,61.1532,10.27,2,2,1
FED_20190415b_3T2,6,7,60,4,jap,76.4725,7.7831,3,3,1
FED_20190415b_3T2,6,8,24,2,en,89.3245,23.918000000000003,4,4,1
FED_20190415b_3T2,7,2,97,6,jap,10.056000000000001,13.8794,1,1,1
FED_20190415b_3T2,7,3,25,2,sent,28.9758,22.3664,3,3,1
FED_20190415b_3T2,7,4,61,4,en,56.3802,7.3162,3,3,1
FED_20190415b_3T2,7,6,43,3,en,78.7839,27.203000000000003,2,2,1
FED_20190415b_3T2,7,7,7,1,sent,111.0393,8.1433,3,3,1
FED_20190415b_3T2,7,8,79,5,jap,124.2248,29.2522,2,2,1
FED_20190415b_3T2,1,2,91,6,jap,10.0576,5.5313,2,2,1
FED_20190415b_3T2,1,3,19,2,sent,20.6426,25.0224,2,2,1
FED_20190415b_3T2,1,4,55,4,en,50.7141,7.8856,1,3,0
FED_20190415b_3T2,1,6,37,3,en,73.6678,11.2981,3,3,1
FED_20190415b_3T2,1,7,1,1,sent,90.0037,22.453000000000003,1,1,1
FED_20190415b_3T2,1,8,73,5,jap,117.5082,14.165,1,1,1
FED_20190415b_3T2,12,2,12,1,en,10.0628,22.1108,2,2,1
FED_20190415b_3T2,12,3,48,3,jap,37.234,7.9226,2,2,1
FED_20190415b_3T2,12,4,84,5,sent,50.2026,16.0438,2,2,1
FED_20190415b_3T2,12,6,102,6,sent,81.3577,27.9253,1,1,1
FED_20190415b_3T2,12,7,66,4,jap,114.3465,6.3431,1,1,1
FED_20190415b_3T2,12,8,30,2,en,125.7315,12.6398,2,2,1
FED_20190415a_3T2,8,2,98,6,jap,10.0587,11.5269,1,4,0
FED_20190415a_3T2,8,3,26,2,sent,26.6113,14.5199,3,3,1
FED_20190415a_3T2,8,4,62,4,en,46.1813,11.4212,4,2,0
FED_20190415a_3T2,8,6,44,3,en,72.6688,12.3387,1,1,1
FED_20190415a_3T2,8,7,8,1,sent,90.0383,12.152000000000001,2,2,1
FED_20190415a_3T2,8,8,80,5,jap,107.2412,23.9072,3,3,1
FED_20190415a_3T2,9,2,45,3,sent,10.0499,16.4829,1,1,1
FED_20190415a_3T2,9,3,81,5,en,31.5699,38.2401,2,4,0
FED_20190415a_3T2,9,4,9,1,jap,74.8436,18.1583,2,2,1
FED_20190415a_3T2,9,6,27,2,jap,108.0825,19.0742,1,1,1
FED_20190415a_3T2,9,7,99,6,en,132.2031,20.5318,1,1,1
FED_20190415a_3T2,9,8,63,4,sent,157.7907,20.8493,4,4,1
FED_20190415a_3T2,2,2,92,6,jap,10.0516,18.3366,2,2,1
FED_20190415a_3T2,2,3,20,2,sent,33.4387,12.0633,3,4,0
FED_20190415a_3T2,2,4,56,4,en,50.5413,9.4782,2,2,1
FED_20190415a_3T2,2,6,38,3,en,75.1122,9.675,2,2,1
FED_20190415a_3T2,2,7,2,1,sent,89.8312,28.7906,2,2,1
FED_20190415a_3T2,2,8,74,5,jap,123.6532,11.6832,4,3,0
FED_20190415a_3T2,3,2,39,3,sent,10.061,8.7588,1,1,1
FED_20190415a_3T2,3,3,75,5,en,23.8631,10.3926,2,2,1
FED_20190415a_3T2,3,4,3,1,jap,39.3158,22.7953,2,2,1
FED_20190415a_3T2,3,6,21,2,jap,77.1886,16.1785,3,3,1
FED_20190415a_3T2,3,7,93,6,en,98.39200000000001,9.8887,3,3,1
FED_20190415a_3T2,3,8,57,4,sent,113.3446,8.7285,1,1,1
FED_20190415a_3T2,5,2,77,5,jap,10.0443,29.7396,4,4,1
FED_20190415a_3T2,5,3,41,3,en,44.8333,23.3186,1,1,1
FED_20190415a_3T2,5,4,5,1,sent,73.2045,30.575,3,3,1
FED_20190415a_3T2,5,6,23,2,sent,118.8453,11.084000000000001,3,3,1
FED_20190415a_3T2,5,7,59,4,en,134.981,15.7106,1,4,0
FED_20190415a_3T2,5,8,95,6,jap,155.7514,15.597000000000001,2,2,1
FED_20190415a_3T2,4,2,22,2,en,10.052,7.9775,2,2,1
FED_20190415a_3T2,4,3,94,6,sent,23.0876,11.1637,2,2,1
FED_20190415a_3T2,4,4,58,4,jap,39.3068,24.1641,2,2,1
FED_20190415a_3T2,4,6,40,3,jap,78.5632,10.3955,2,2,1
FED_20190415a_3T2,4,7,76,5,sent,94.0156,13.5731,2,4,0
FED_20190415a_3T2,4,8,4,1,en,112.6354,8.9119,4,4,1
FED_20190415a_3T2,10,2,28,2,en,10.0589,37.9798,2,2,1
FED_20190415a_3T2,10,3,100,6,sent,53.0991,15.0296,2,2,1
FED_20190415a_3T2,10,4,64,4,jap,73.1858,14.76,2,1,0
FED_20190415a_3T2,10,6,46,3,jap,103.0241,17.2364,1,1,1
FED_20190415a_3T2,10,7,82,5,sent,125.3276,10.6031,2,2,1
FED_20190415a_3T2,10,8,10,1,en,140.9801,22.427,2,2,1
FED_20190415a_3T2,11,2,83,5,jap,10.0448,24.1519,3,3,1
FED_20190415a_3T2,11,3,47,3,en,39.2495,28.982,1,4,0
FED_20190415a_3T2,11,4,11,1,sent,73.2549,34.5157,1,1,1
FED_20190415a_3T2,11,6,29,2,sent,122.8464,27.3526,2,2,1
FED_20190415a_3T2,11,7,65,4,en,155.2518,11.6215,1,1,1
FED_20190415a_3T2,11,8,101,6,jap,171.9211,12.0073,1,1,1
FED_20190415a_3T2,1,2,1,1,en,10.1574,11.5555,1,1,1
FED_20190415a_3T2,1,3,37,3,jap,26.8097,14.6137,3,3,1
FED_20190415a_3T2,1,4,73,5,sent,46.4795,15.845999999999998,1,1,1
FED_20190415a_3T2,1,6,91,6,sent,77.4179,35.9531,2,2,1
FED_20190415a_3T2,1,7,55,4,jap,118.4245,11.2784,1,3,0
FED_20190415a_3T2,1,8,19,2,en,134.7606,20.1536,2,1,0
FED_20190415a_3T2,12,2,66,4,sent,10.0585,14.2043,1,2,0
FED_20190415a_3T2,12,3,30,2,jap,29.3114,12.0323,2,2,1
FED_20190415a_3T2,12,4,102,6,en,46.3978,26.0305,1,1,1
FED_20190415a_3T2,12,6,84,5,en,87.5211,22.2109,2,2,1
FED_20190415a_3T2,12,7,12,1,jap,114.7922,21.1813,2,4,0
FED_20190415a_3T2,12,8,48,3,sent,141.0298,29.5253,2,3,0
FED_20190415a_3T2,6,2,60,4,sent,10.0552,13.0267,3,3,1
FED_20190415a_3T2,6,3,24,2,jap,28.1246,39.0207,4,4,1
FED_20190415a_3T2,6,4,96,6,en,72.1986,8.1314,2,2,1
FED_20190415a_3T2,6,6,78,5,en,95.4023,15.2232,3,3,1
FED_20190415a_3T2,6,7,6,1,jap,115.6723,14.3894,3,3,1
FED_20190415a_3T2,6,8,42,3,sent,135.0921,7.2367,3,3,1
FED_20190415a_3T2,7,2,7,1,en,10.0519,7.0876,3,3,1
FED_20190415a_3T2,7,3,43,3,jap,22.1873,19.3157,2,2,1
FED_20190415a_3T2,7,4,79,5,sent,46.558,13.1905,2,4,0
FED_20190415a_3T2,7,6,97,6,sent,74.8292,17.2238,1,1,1
FED_20190415a_3T2,7,7,61,4,jap,97.1163,15.6831,3,3,1
FED_20190415a_3T2,7,8,25,2,en,117.8361,14.8494,3,4,0
FED_20190314a_3T2,5,2,95,6,jap,10.0448,27.5634,2,2,1
FED_20190314a_3T2,5,3,23,2,sent,42.6668,11.482999999999999,3,3,1
FED_20190314a_3T2,5,4,59,4,en,59.2029,26.552,1,1,1
FED_20190314a_3T2,5,6,41,3,en,100.8429,18.5091,1,2,0
FED_20190314a_3T2,5,7,5,1,sent,124.4135,29.4354,3,3,1
FED_20190314a_3T2,5,8,77,5,jap,158.9025,33.0758,4,4,1
FED_20190314a_3T2,4,2,4,1,en,10.0532,6.3033,4,4,1
FED_20190314a_3T2,4,3,40,3,jap,21.4217,9.4323,2,2,1
FED_20190314a_3T2,4,4,76,5,sent,35.9073,12.7395,2,2,1
FED_20190314a_3T2,4,6,94,6,sent,63.7284,21.694000000000003,2,4,0
FED_20190314a_3T2,4,7,58,4,jap,90.4829,23.6886,2,2,1
FED_20190314a_3T2,4,8,22,2,en,119.2377,13.0244,2,2,1
FED_20190314a_3T2,12,2,48,3,sent,10.0598,9.0576,2,2,1
FED_20190314a_3T2,12,3,84,5,en,24.1788,16.5293,2,2,1
FED_20190314a_3T2,12,4,12,1,jap,45.7321,20.2711,2,2,1
FED_20190314a_3T2,12,6,30,2,jap,81.1047,21.865,2,2,1
FED_20190314a_3T2,12,7,102,6,en,108.0258,14.3532,1,1,1
FED_20190314a_3T2,12,8,66,4,sent,127.4288,19.7632,1,1,1
FED_20190314a_3T2,8,2,80,5,jap,10.0648,18.3718,3,3,1
FED_20190314a_3T2,8,3,44,3,en,33.4853,10.9013,1,1,1
FED_20190314a_3T2,8,4,8,1,sent,49.4378,9.6166,2,2,1
FED_20190314a_3T2,8,6,26,2,sent,74.1418,15.0395,3,3,1
FED_20190314a_3T2,8,7,62,4,en,94.2285,16.5778,4,2,0
FED_20190314a_3T2,8,8,98,6,jap,115.8486,25.7238,1,4,0
FED_20190314a_3T2,9,2,63,4,sent,10.059,16.2577,4,4,1
FED_20190314a_3T2,9,3,27,2,jap,31.3793,22.8749,1,1,1
FED_20190314a_3T2,9,4,99,6,en,59.3004,14.4493,1,1,1
FED_20190314a_3T2,9,6,81,5,en,88.8218,30.9544,2,4,0
FED_20190314a_3T2,9,7,9,1,jap,124.8278,15.1256,2,4,0
FED_20190314a_3T2,9,8,45,3,sent,144.9977,27.7456,1,4,0
FED_20190314a_3T2,2,2,74,5,jap,10.0391,38.3043,4,3,0
FED_20190314a_3T2,2,3,38,3,en,53.3963,12.8431,2,2,1
FED_20190314a_3T2,2,4,2,1,sent,71.2992,29.1776,2,2,1
FED_20190314a_3T2,2,6,20,2,sent,115.5731,14.3344,3,3,1
FED_20190314a_3T2,2,7,56,4,en,134.9595,14.3958,2,2,1
FED_20190314a_3T2,2,8,92,6,jap,154.4128,18.921,2,2,1
FED_20190314a_3T2,3,2,57,4,sent,10.0493,7.5199,1,1,1
FED_20190314a_3T2,3,3,21,2,jap,22.618000000000002,24.2811,3,3,1
FED_20190314a_3T2,3,4,93,6,en,51.9394,6.7161,3,3,1
FED_20190314a_3T2,3,6,75,5,en,73.743,32.8273,2,2,1
FED_20190314a_3T2,3,7,3,1,jap,111.6158,24.5508,2,4,0
FED_20190314a_3T2,3,8,39,3,sent,141.2207,16.1052,1,1,1
FED_20190314a_3T2,11,2,101,6,jap,10.0565,9.9047,1,1,1
FED_20190314a_3T2,11,3,29,2,sent,25.0255,30.1046,2,2,1
FED_20190314a_3T2,11,4,65,4,en,60.1979,13.4834,1,1,1
FED_20190314a_3T2,11,6,47,3,en,88.7694,33.3997,1,1,1
FED_20190314a_3T2,11,7,11,1,sent,127.2254,15.9929,1,1,1
FED_20190314a_3T2,11,8,83,5,jap,148.2788,18.8328,3,3,1
FED_20190314a_3T2,10,2,10,1,en,10.064,10.9538,2,2,1
FED_20190314a_3T2,10,3,46,3,jap,26.0668,13.5864,1,1,1
FED_20190314a_3T2,10,4,82,5,sent,44.6862,10.6559,2,2,1
FED_20190314a_3T2,10,6,100,6,sent,70.4236,11.3706,2,2,1
FED_20190314a_3T2,10,7,64,4,jap,86.8432,21.6427,2,2,1
FED_20190314a_3T2,10,8,28,2,en,113.514,33.8864,2,2,1
FED_20190314a_3T2,6,2,42,3,sent,10.0556,5.6861,3,3,1
FED_20190314a_3T2,6,3,78,5,en,20.7906,15.0219,3,3,1
FED_20190314a_3T2,6,4,6,1,jap,40.8439,18.5775,3,3,1
FED_20190314a_3T2,6,6,24,2,jap,74.4993,27.3122,4,4,1
FED_20190314a_3T2,6,7,96,6,en,106.8545,13.2582,2,2,1
FED_20190314a_3T2,6,8,60,4,sent,125.1744,26.5403,3,3,1
FED_20190314a_3T2,7,2,25,2,en,10.0553,18.2148,3,3,1
FED_20190314a_3T2,7,3,97,6,sent,33.3259,13.5528,1,1,1
FED_20190314a_3T2,7,4,61,4,jap,51.9289,15.0572,3,3,1
FED_20190314a_3T2,7,6,43,3,jap,82.0671,30.5019,2,2,1
FED_20190314a_3T2,7,7,79,5,sent,117.6229,23.1049,2,4,0
FED_20190314a_3T2,7,8,7,1,en,145.7608,10.5118,3,3,1
FED_20190314a_3T2,1,2,19,2,en,10.1288,19.9917,2,2,1
FED_20190314a_3T2,1,3,91,6,sent,35.216,36.6999,2,1,0
FED_20190314a_3T2,1,4,55,4,jap,76.9726,8.8725,1,1,1
FED_20190314a_3T2,1,6,37,3,jap,100.9099,18.1132,3,3,1
FED_20190314a_3T2,1,7,73,5,sent,124.0469,11.6229,1,1,1
FED_20190314a_3T2,1,8,1,1,en,140.733,20.3422,1,1,1
FED_20190226c_3T2,1,2,19,2,en,10.1315,17.6973,2,2,1
FED_20190226c_3T2,1,3,91,6,sent,32.9182,50.0008,2,-1,0
FED_20190226c_3T2,1,4,55,4,jap,87.9771,10.1272,1,1,1
FED_20190226c_3T2,1,6,37,3,jap,113.1646,23.7076,3,3,1
FED_20190226c_3T2,1,7,73,5,sent,141.9193,8.6789,1,1,1
FED_20190226c_3T2,1,8,1,1,en,155.6547,20.9717,1,1,1
FED_20190226c_3T2,11,2,101,6,jap,10.0574,12.0504,1,1,1
FED_20190226c_3T2,11,3,29,2,sent,27.1601,28.1039,2,2,1
FED_20190226c_3T2,11,4,65,4,en,60.3157,13.3713,1,1,1
FED_20190226c_3T2,11,6,47,3,en,88.7868,33.7257,1,1,1
FED_20190226c_3T2,11,7,11,1,sent,127.5599,34.8591,1,1,1
FED_20190226c_3T2,11,8,83,5,jap,167.4664,30.9801,3,3,1
FED_20190226c_3T2,10,2,10,1,en,10.0486,7.4879,2,2,1
FED_20190226c_3T2,10,3,46,3,jap,22.5837,11.6632,1,1,1
FED_20190226c_3T2,10,4,82,5,sent,39.3031,16.0501,2,2,1
FED_20190226c_3T2,10,6,100,6,sent,70.4248,14.0277,2,2,1
FED_20190226c_3T2,10,7,64,4,jap,89.4947,39.8325,2,2,1
FED_20190226c_3T2,10,8,28,2,en,134.3853,39.4358,2,2,1
FED_20190226c_3T2,6,2,42,3,sent,10.0508,5.6759,3,3,1
FED_20190226c_3T2,6,3,78,5,en,20.7857,28.7699,3,3,1
FED_20190226c_3T2,6,4,6,1,jap,54.5911,10.8212,3,3,1
FED_20190226c_3T2,6,6,24,2,jap,80.4954,22.8977,4,4,1
FED_20190226c_3T2,6,7,96,6,en,108.45,9.3196,2,2,1
FED_20190226c_3T2,6,8,60,4,sent,122.8022,20.206,3,3,1
FED_20190226c_3T2,7,2,25,2,en,10.0475,21.9125,3,3,1
FED_20190226c_3T2,7,3,97,6,sent,37.0186,17.3198,1,1,1
FED_20190226c_3T2,7,4,61,4,jap,59.388999999999996,10.7059,3,3,1
FED_20190226c_3T2,7,6,43,3,jap,85.1932,29.1131,2,1,0
FED_20190226c_3T2,7,7,79,5,sent,119.3654,18.7375,2,4,0
FED_20190226c_3T2,7,8,7,1,en,143.1525,6.4324,3,3,1
FED_20190226c_3T2,12,2,48,3,sent,10.0508,22.951,2,3,0
FED_20190226c_3T2,12,3,84,5,en,38.0554,22.0064,2,2,1
FED_20190226c_3T2,12,4,12,1,jap,65.1097,23.2005,2,2,1
FED_20190226c_3T2,12,6,30,2,jap,103.3993,29.2927,2,2,1
FED_20190226c_3T2,12,7,102,6,en,137.7384,26.4939,1,1,1
FED_20190226c_3T2,12,8,66,4,sent,169.2599,33.2385,1,1,1
FED_20190226c_3T2,2,2,74,5,jap,10.0596,50.0003,4,3,0
FED_20190226c_3T2,2,3,38,3,en,65.1187,50.0007,2,2,1
FED_20190226c_3T2,2,4,2,1,sent,120.1773,50.001000000000005,2,-1,0
FED_20190226c_3T2,2,6,20,2,sent,185.2547,8.3414,3,3,1
FED_20190226c_3T2,2,7,56,4,en,198.6568,11.5046,2,2,1
FED_20190226c_3T2,2,8,92,6,jap,215.1928,21.8685,2,2,1
FED_20190226c_3T2,3,2,57,4,sent,10.055,5.6567,1,1,1
FED_20190226c_3T2,3,3,21,2,jap,20.7399,34.8137,3,3,1
FED_20190226c_3T2,3,4,93,6,en,60.6132,10.609000000000002,3,2,0
FED_20190226c_3T2,3,6,75,5,en,86.3005,21.386999999999997,2,2,1
FED_20190226c_3T2,3,7,3,1,jap,112.755,26.2484,2,2,1
FED_20190226c_3T2,3,8,39,3,sent,144.0603,12.0907,1,1,1
FED_20190226c_3T2,8,2,80,5,jap,10.062999999999999,22.1866,3,3,1
FED_20190226c_3T2,8,3,44,3,en,37.3007,8.1024,1,1,1
FED_20190226c_3T2,8,4,8,1,sent,50.4696,13.7167,2,2,1
FED_20190226c_3T2,8,6,26,2,sent,79.2742,18.6058,3,3,1
FED_20190226c_3T2,8,7,62,4,en,102.9283,23.2098,4,1,0
FED_20190226c_3T2,8,8,98,6,jap,131.166,19.4922,1,1,1
FED_20190226c_3T2,9,2,63,4,sent,10.0383,10.8283,4,4,1
FED_20190226c_3T2,9,3,27,2,jap,25.9241,12.4531,1,1,1
FED_20190226c_3T2,9,4,99,6,en,43.4269,19.9435,1,1,1
FED_20190226c_3T2,9,6,81,5,en,78.46600000000001,38.4904,2,2,1
FED_20190226c_3T2,9,7,9,1,jap,121.9897,11.8854,2,2,1
FED_20190226c_3T2,9,8,45,3,sent,138.9427,25.5018,1,1,1
FED_20190226c_3T2,5,2,95,6,jap,10.0426,11.4132,2,2,1
FED_20190226c_3T2,5,3,23,2,sent,26.5119,10.2574,3,3,1
FED_20190226c_3T2,5,4,59,4,en,41.8144,21.2357,1,1,1
FED_20190226c_3T2,5,6,41,3,en,78.1371,20.5504,1,1,1
FED_20190226c_3T2,5,7,5,1,sent,103.7244,50.0006,3,-1,0
FED_20190226c_3T2,5,8,77,5,jap,158.7834,27.1453,4,1,0
FED_20190226c_3T2,4,2,4,1,en,10.0464,7.6555,4,4,1
FED_20190226c_3T2,4,3,40,3,jap,22.7651,18.47,2,2,1
FED_20190226c_3T2,4,4,76,5,sent,46.2856,19.1826,2,1,0
FED_20190226c_3T2,4,6,94,6,sent,80.5579,50.0012,2,2,1
FED_20190226c_3T2,4,7,58,4,jap,135.6002,22.8561,2,2,1
FED_20190226c_3T2,4,8,22,2,en,163.5213,14.6889,2,2,1
FED_20190416a_3T2,3,2,75,5,jap,10.0599,25.6707,2,2,1
FED_20190416a_3T2,3,3,39,3,en,40.7646,12.1908,1,1,1
FED_20190416a_3T2,3,4,3,1,sent,58.0176,41.6678,2,4,0
FED_20190416a_3T2,3,6,21,2,sent,114.7602,20.5241,3,3,1
FED_20190416a_3T2,3,7,57,4,en,140.3308,6.1448,1,1,1
FED_20190416a_3T2,3,8,93,6,jap,151.5328,12.1245,3,3,1
FED_20190416a_3T2,2,2,20,2,en,10.0507,16.7658,3,3,1
FED_20190416a_3T2,2,3,92,6,sent,31.8708,33.1884,2,2,1
FED_20190416a_3T2,2,4,56,4,jap,70.1102,20.0377,2,2,1
FED_20190416a_3T2,2,6,38,3,jap,105.2328,11.0557,2,2,1
FED_20190416a_3T2,2,7,74,5,sent,121.3352,12.8366,4,3,0
FED_20190416a_3T2,2,8,2,1,en,139.2215,33.23,2,2,1
FED_20190416a_3T2,9,2,81,5,jap,10.0538,49.9067,2,2,1
FED_20190416a_3T2,9,3,45,3,en,65.0126,20.6332,1,1,1
FED_20190416a_3T2,9,4,9,1,sent,90.6835,19.9339,2,2,1
FED_20190416a_3T2,9,6,27,2,sent,125.7059,32.2614,1,1,1
FED_20190416a_3T2,9,7,63,4,en,163.012,19.9938,4,4,1
FED_20190416a_3T2,9,8,99,6,jap,188.0494,21.623,1,1,1
FED_20190416a_3T2,8,2,26,2,en,10.0436,44.2493,3,4,0
FED_20190416a_3T2,8,3,98,6,sent,59.3516,10.7372,1,1,1
FED_20190416a_3T2,8,4,62,4,jap,75.1208,23.61,4,1,0
FED_20190416a_3T2,8,6,44,3,jap,113.7937,24.7564,1,1,1
FED_20190416a_3T2,8,7,80,5,sent,143.5987,25.496,3,4,0
FED_20190416a_3T2,8,8,8,1,en,174.1201,16.9955,2,2,1
FED_20190416a_3T2,10,2,64,4,sent,10.0613,22.9727,2,2,1
FED_20190416a_3T2,10,3,28,2,jap,38.099000000000004,40.0036,2,4,0
FED_20190416a_3T2,10,4,100,6,en,83.1563,19.1431,2,2,1
FED_20190416a_3T2,10,6,82,5,en,117.3787,15.8503,2,2,1
FED_20190416a_3T2,10,7,10,1,jap,138.2821,21.511999999999997,2,2,1
FED_20190416a_3T2,10,8,46,3,sent,164.8532,24.7676,1,1,1
FED_20190416a_3T2,11,2,11,1,en,10.0577,19.8869,1,1,1
FED_20190416a_3T2,11,3,47,3,jap,34.9951,41.7452,1,1,1
FED_20190416a_3T2,11,4,83,5,sent,81.8028,24.7535,3,4,0
FED_20190416a_3T2,11,6,101,6,sent,121.6425,15.2402,1,1,1
FED_20190416a_3T2,11,7,65,4,jap,141.9293,16.766,1,1,1
FED_20190416a_3T2,11,8,29,2,en,163.7327,29.3267,2,4,0
FED_20190416a_3T2,4,2,58,4,sent,10.0609,17.4284,2,2,1
FED_20190416a_3T2,4,3,22,2,jap,32.5478,13.8718,2,2,1
FED_20190416a_3T2,4,4,94,6,en,51.4675,18.3996,2,2,1
FED_20190416a_3T2,4,6,76,5,en,84.9395,11.7332,2,2,1
FED_20190416a_3T2,4,7,4,1,jap,101.7258,15.1957,4,4,1
FED_20190416a_3T2,4,8,40,3,sent,121.9458,13.0238,2,2,1
FED_20190416a_3T2,5,2,5,1,en,10.0579,24.9476,3,3,1
FED_20190416a_3T2,5,3,41,3,jap,40.0626,23.7929,1,1,1
FED_20190416a_3T2,5,4,77,5,sent,68.9174,27.3992,4,1,0
FED_20190416a_3T2,5,6,95,6,sent,111.4077,21.9273,2,2,1
FED_20190416a_3T2,5,7,59,4,jap,138.3954,23.7605,1,1,1
FED_20190416a_3T2,5,8,23,2,en,167.2168,19.692999999999998,3,3,1
FED_20190416a_3T2,1,2,37,3,sent,10.1386,21.5038,3,3,1
FED_20190416a_3T2,1,3,73,5,en,36.7593,24.2468,1,1,1
FED_20190416a_3T2,1,4,1,1,jap,66.0641,35.5745,1,1,1
FED_20190416a_3T2,1,6,19,2,jap,116.7223,18.8674,2,2,1
FED_20190416a_3T2,1,7,91,6,en,140.643,23.2152,2,3,0
FED_20190416a_3T2,1,8,55,4,sent,168.9142,22.0384,1,1,1
FED_20190416a_3T2,12,2,102,6,jap,10.0622,22.7904,1,1,1
FED_20190416a_3T2,12,3,30,2,sent,37.9001,16.6685,2,2,1
FED_20190416a_3T2,12,4,66,4,en,59.6204,10.4779,1,1,1
FED_20190416a_3T2,12,6,48,3,en,85.15799999999999,8.4827,2,2,1
FED_20190416a_3T2,12,7,12,1,sent,98.6935,30.4,2,2,1
FED_20190416a_3T2,12,8,84,5,jap,134.149,24.9454,2,2,1
FED_20190416a_3T2,7,2,43,3,sent,10.0461,35.3452,2,2,1
FED_20190416a_3T2,7,3,79,5,en,50.4526,41.178999999999995,2,2,1
FED_20190416a_3T2,7,4,7,1,jap,96.6768,14.4517,3,3,1
FED_20190416a_3T2,7,6,25,2,jap,126.2151,25.2744,3,3,1
FED_20190416a_3T2,7,7,97,6,en,156.5533,12.487,1,1,1
FED_20190416a_3T2,7,8,61,4,sent,174.0895,26.1927,3,3,1
FED_20190416a_3T2,6,2,96,6,jap,10.0455,9.1685,2,2,1
FED_20190416a_3T2,6,3,24,2,sent,24.2646,16.2081,4,4,1
FED_20190416a_3T2,6,4,60,4,en,45.518,11.8154,3,3,1
FED_20190416a_3T2,6,6,42,3,en,72.4223,8.8869,3,3,1
FED_20190416a_3T2,6,7,6,1,sent,86.3578,22.5944,3,3,1
FED_20190416a_3T2,6,8,78,5,jap,113.9958,23.3874,3,3,1
FED_20190226b_3T2,1,2,37,3,sent,10.0535,22.6308,3,3,1
FED_20190226b_3T2,1,3,73,5,en,37.7413,19.6288,1,1,1
FED_20190226b_3T2,1,4,1,1,jap,62.4286,17.88,1,1,1
FED_20190226b_3T2,1,6,19,2,jap,95.3838,22.5776,2,2,1
FED_20190226b_3T2,1,7,91,6,en,122.9884,12.5817,2,2,1
FED_20190226b_3T2,1,8,55,4,sent,140.6246,7.5605,1,3,0
FED_20190226b_3T2,7,2,43,3,sent,10.0957,22.8541,2,2,1
FED_20190226b_3T2,7,3,79,5,en,38.0502,47.5818,2,1,0
FED_20190226b_3T2,7,4,7,1,jap,90.7088,15.2452,3,3,1
FED_20190226b_3T2,7,6,25,2,jap,121.0971,14.3568,3,3,1
FED_20190226b_3T2,7,7,97,6,en,140.5503,14.5297,1,1,1
FED_20190226b_3T2,7,8,61,4,sent,160.1701,27.5694,3,4,0
FED_20190226b_3T2,6,2,96,6,jap,10.0581,7.9573,2,2,1
FED_20190226b_3T2,6,3,24,2,sent,23.0434,10.9744,4,4,1
FED_20190226b_3T2,6,4,60,4,en,39.0796,17.1055,3,3,1
FED_20190226b_3T2,6,6,42,3,en,71.2513,6.8039,3,3,1
FED_20190226b_3T2,6,7,6,1,sent,83.1032,23.1086,3,3,1
FED_20190226b_3T2,6,8,78,5,jap,111.2748,42.8623,3,3,1
FED_20190226b_3T2,12,2,102,6,jap,10.0602,26.1498,1,1,1
FED_20190226b_3T2,12,3,30,2,sent,41.2653,14.8783,2,2,1
FED_20190226b_3T2,12,4,66,4,en,61.1852,21.3878,1,1,1
FED_20190226b_3T2,12,6,48,3,en,97.6742,16.0306,2,2,1
FED_20190226b_3T2,12,7,12,1,sent,118.7613,21.8409,2,2,1
FED_20190226b_3T2,12,8,84,5,jap,145.6487,41.3417,2,2,1
FED_20190226b_3T2,3,2,75,5,jap,10.0413,27.8786,2,2,1
FED_20190226b_3T2,3,3,39,3,en,42.9633,13.9561,1,1,1
FED_20190226b_3T2,3,4,3,1,sent,61.9665,22.3592,2,2,1
FED_20190226b_3T2,3,6,21,2,sent,99.4058,16.2846,3,3,1
FED_20190226b_3T2,3,7,57,4,en,120.7259,8.5886,1,1,1
FED_20190226b_3T2,3,8,93,6,jap,134.3781,8.9107,3,3,1
FED_20190226b_3T2,2,2,20,2,en,10.0661,16.3925,3,3,1
FED_20190226b_3T2,2,3,92,6,sent,31.5195,32.3995,2,2,1
FED_20190226b_3T2,2,4,56,4,jap,68.9757,9.251,2,2,1
FED_20190226b_3T2,2,6,38,3,jap,93.3127,21.3676,2,2,1
FED_20190226b_3T2,2,7,74,5,sent,119.7337,21.0461,4,3,0
FED_20190226b_3T2,2,8,2,1,en,145.8046,36.8074,2,2,1
FED_20190226b_3T2,9,2,81,5,jap,10.0741,39.5942,2,2,1
FED_20190226b_3T2,9,3,45,3,en,54.7312,19.9036,1,1,1
FED_20190226b_3T2,9,4,9,1,sent,79.6853,17.7033,2,2,1
FED_20190226b_3T2,9,6,27,2,sent,112.4906,18.5311,1,1,1
FED_20190226b_3T2,9,7,63,4,en,136.0944,29.4214,4,4,1
FED_20190226b_3T2,9,8,99,6,jap,170.5834,17.1655,1,1,1
FED_20190226b_3T2,8,2,26,2,en,10.0739,20.0888,3,3,1
FED_20190226b_3T2,8,3,98,6,sent,35.2279,7.3868,1,1,1
FED_20190226b_3T2,8,4,62,4,jap,47.6965,21.5722,4,4,1
FED_20190226b_3T2,8,6,44,3,jap,84.4194,18.0388,1,1,1
FED_20190226b_3T2,8,7,80,5,sent,107.5564,43.3545,3,3,1
FED_20190226b_3T2,8,8,8,1,en,156.0142,9.9805,2,2,1
FED_20190226b_3T2,11,2,11,1,en,10.0541,7.2075,1,1,1
FED_20190226b_3T2,11,3,47,3,jap,22.3057,39.8481,1,1,1
FED_20190226b_3T2,11,4,83,5,sent,67.2133,17.7751,3,3,1
FED_20190226b_3T2,11,6,101,6,sent,100.0684,19.3078,1,1,1
FED_20190226b_3T2,11,7,65,4,jap,124.4226,23.1033,1,1,1
FED_20190226b_3T2,11,8,29,2,en,152.5939,23.2089,2,2,1
FED_20190226b_3T2,10,2,64,4,sent,10.0516,11.234000000000002,2,2,1
FED_20190226b_3T2,10,3,28,2,jap,26.3375,21.0386,2,3,0
FED_20190226b_3T2,10,4,100,6,en,52.4084,9.2442,2,2,1
FED_20190226b_3T2,10,6,82,5,en,76.7458,12.9189,2,2,1
FED_20190226b_3T2,10,7,10,1,jap,94.7153,18.9699,2,2,1
FED_20190226b_3T2,10,8,46,3,sent,118.7358,31.1654,1,1,1
FED_20190226b_3T2,4,2,58,4,sent,10.0532,16.5823,2,4,0
FED_20190226b_3T2,4,3,22,2,jap,31.6902,27.5313,2,2,1
FED_20190226b_3T2,4,4,94,6,en,64.279,13.0168,2,2,1
FED_20190226b_3T2,4,6,76,5,en,92.3666,22.9323,2,2,1
FED_20190226b_3T2,4,7,4,1,jap,120.3545,17.676,4,4,1
FED_20190226b_3T2,4,8,40,3,sent,143.0749,14.8239,2,2,1
FED_20190226b_3T2,5,2,5,1,en,10.0611,11.9206,3,3,1
FED_20190226b_3T2,5,3,41,3,jap,27.0138,30.9892,1,1,1
FED_20190226b_3T2,5,4,77,5,sent,63.0531,14.9384,4,4,1
FED_20190226b_3T2,5,6,95,6,sent,93.0914,11.1489,2,2,1
FED_20190226b_3T2,5,7,59,4,jap,109.2942,42.7019,1,1,1
FED_20190226b_3T2,5,8,23,2,en,157.035,16.1438,3,3,1
FED_20190314b_3T2,8,2,62,4,sent,10.0598,11.6163,4,1,0
FED_20190314b_3T2,8,3,26,2,jap,26.7291,23.6544,3,3,1
FED_20190314b_3T2,8,4,98,6,en,55.4504,16.2109,1,1,1
FED_20190314b_3T2,8,6,80,5,en,86.7556,20.1362,3,3,1
FED_20190314b_3T2,8,7,8,1,jap,111.9429,11.3622,2,2,1
FED_20190314b_3T2,8,8,44,3,sent,128.3455,13.895999999999999,1,1,1
FED_20190314b_3T2,9,2,9,1,en,10.0531,5.3651,2,2,1
FED_20190314b_3T2,9,3,45,3,jap,20.4546,8.1942,1,4,0
FED_20190314b_3T2,9,4,81,5,sent,33.7068,15.0481,2,3,0
FED_20190314b_3T2,9,6,99,6,sent,63.8284,17.3563,1,1,1
FED_20190314b_3T2,9,7,63,4,jap,86.2154,18.4109,4,4,1
FED_20190314b_3T2,9,8,27,2,en,109.6861,12.9162,1,1,1
FED_20190314b_3T2,12,2,30,2,en,10.0596,10.2217,2,2,1
FED_20190314b_3T2,12,3,102,6,sent,25.3286,38.7926,1,1,1
FED_20190314b_3T2,12,4,66,4,jap,69.1691,7.7216,1,1,1
FED_20190314b_3T2,12,6,48,3,jap,91.9727,5.1478,2,2,1
FED_20190314b_3T2,12,7,84,5,sent,102.1744,15.3285,2,2,1
FED_20190314b_3T2,12,8,12,1,en,122.5278,23.4848,2,2,1
FED_20190314b_3T2,2,2,56,4,sent,10.0418,7.3588,2,2,1
FED_20190314b_3T2,2,3,20,2,jap,22.4606,9.4095,3,3,1
FED_20190314b_3T2,2,4,92,6,en,36.9297,16.1522,2,2,1
FED_20190314b_3T2,2,6,74,5,en,68.1681,13.3093,4,3,0
FED_20190314b_3T2,2,7,2,1,jap,86.5211,23.4335,2,2,1
FED_20190314b_3T2,2,8,38,3,sent,114.9922,30.8334,2,2,1
FED_20190314b_3T2,3,2,3,1,en,10.0659,13.591,2,2,1
FED_20190314b_3T2,3,3,39,3,jap,28.7191,10.6213,1,1,1
FED_20190314b_3T2,3,4,75,5,sent,44.3882,11.2382,2,2,1
FED_20190314b_3T2,3,6,93,6,sent,70.7258,13.399000000000001,3,2,0
FED_20190314b_3T2,3,7,57,4,jap,89.1789,6.8982,1,1,1
FED_20190314b_3T2,3,8,21,2,en,101.1308,11.4686,3,3,1
FED_20190314b_3T2,5,2,41,3,sent,10.0485,45.1034,1,1,1
FED_20190314b_3T2,5,3,77,5,en,60.2066,11.3378,4,3,0
FED_20190314b_3T2,5,4,5,1,jap,76.6094,12.9077,3,3,1
FED_20190314b_3T2,5,6,23,2,jap,104.5805,11.2041,3,3,1
FED_20190314b_3T2,5,7,95,6,en,120.8332,7.3294,2,2,1
FED_20190314b_3T2,5,8,59,4,sent,133.2185,43.626999999999995,1,1,1
FED_20190314b_3T2,4,2,94,6,jap,10.0551,7.1614,2,2,1
FED_20190314b_3T2,4,3,22,2,sent,22.2736,21.9224,2,1,0
FED_20190314b_3T2,4,4,58,4,en,49.2446,10.7563,2,2,1
FED_20190314b_3T2,4,6,40,3,en,75.0989,10.8331,2,2,1
FED_20190314b_3T2,4,7,4,1,sent,90.9848,15.8743,4,4,1
FED_20190314b_3T2,4,8,76,5,jap,111.9048,18.6028,2,2,1
FED_20190314b_3T2,10,2,100,6,jap,10.0591,8.1394,2,2,1
FED_20190314b_3T2,10,3,28,2,sent,23.2444,26.7108,2,2,1
FED_20190314b_3T2,10,4,64,4,en,55.0164,12.9402,2,2,1
FED_20190314b_3T2,10,6,46,3,en,83.0376,18.2509,1,1,1
FED_20190314b_3T2,10,7,10,1,sent,106.3414,9.281,2,2,1
FED_20190314b_3T2,10,8,82,5,jap,120.6771,11.4109,2,2,1
FED_20190314b_3T2,11,2,47,3,sent,10.0447,34.894,1,1,1
FED_20190314b_3T2,11,3,83,5,en,50.0012,9.3898,3,3,1
FED_20190314b_3T2,11,4,11,1,jap,64.4369,12.9242,1,1,1
FED_20190314b_3T2,11,6,29,2,jap,92.4581,15.8956,2,4,0
FED_20190314b_3T2,11,7,101,6,en,113.4114,15.4637,1,1,1
FED_20190314b_3T2,11,8,65,4,sent,133.8982,12.7908,1,1,1
FED_20190314b_3T2,1,2,73,5,jap,10.0485,15.3096,1,1,1
FED_20190314b_3T2,1,3,37,3,en,30.4017,11.9359,3,3,1
FED_20190314b_3T2,1,4,1,1,sent,47.3878,14.7302,1,1,1
FED_20190314b_3T2,1,6,19,2,sent,77.1927,20.3882,2,2,1
FED_20190314b_3T2,1,7,55,4,en,102.6135,12.1839,1,1,1
FED_20190314b_3T2,1,8,91,6,jap,119.8498,12.7757,2,2,1
FED_20190314b_3T2,6,2,24,2,en,10.0586,14.7391,4,4,1
FED_20190314b_3T2,6,3,96,6,sent,29.8452,16.3959,2,2,1
FED_20190314b_3T2,6,4,60,4,jap,51.2651,8.3374,3,3,1
FED_20190314b_3T2,6,6,42,3,jap,74.6858,7.2593,3,3,1
FED_20190314b_3T2,6,7,78,5,sent,86.9709,12.4032,3,3,1
FED_20190314b_3T2,6,8,6,1,en,104.4239,9.3833,3,3,1
FED_20190314b_3T2,7,2,79,5,jap,10.045,16.2441,2,2,1
FED_20190314b_3T2,7,3,43,3,en,31.3316,32.1076,2,2,1
FED_20190314b_3T2,7,4,7,1,sent,68.4709,11.5558,3,3,1
FED_20190314b_3T2,7,6,25,2,sent,95.1086,18.0024,3,3,1
FED_20190314b_3T2,7,7,61,4,en,118.1624,8.1038,3,3,1
FED_20190314b_3T2,7,8,97,6,jap,131.3144,10.2207,1,1,1
FED_20190416c_3T2,12,2,30,2,en,10.0365,12.1331,2,2,1
FED_20190416c_3T2,12,3,102,6,sent,27.2229,20.118,1,1,1
FED_20190416c_3T2,12,4,66,4,jap,52.3937,8.2353,1,1,1
FED_20190416c_3T2,12,6,48,3,jap,75.7309,10.5287,2,2,1
FED_20190416c_3T2,12,7,84,5,sent,91.3166,17.94,2,2,1
FED_20190416c_3T2,12,8,12,1,en,114.3037,16.8682,2,2,1
FED_20190416c_3T2,5,2,41,3,sent,10.0536,39.8932,1,2,0
FED_20190416c_3T2,5,3,77,5,en,54.9772,18.949,4,4,1
FED_20190416c_3T2,5,4,5,1,jap,78.9813,25.6939,3,3,1
FED_20190416c_3T2,5,6,23,2,jap,119.7545,15.4207,3,3,1
FED_20190416c_3T2,5,7,95,6,en,140.2244,12.4186,2,2,1
FED_20190416c_3T2,5,8,59,4,sent,157.6943,36.9794,1,1,1
FED_20190416c_3T2,4,2,94,6,jap,10.0447,19.5336,2,2,1
FED_20190416c_3T2,4,3,22,2,sent,34.6153,26.9238,2,2,1
FED_20190416c_3T2,4,4,58,4,en,66.5705,15.7603,2,2,1
FED_20190416c_3T2,4,6,40,3,en,97.4088,11.0959,2,2,1
FED_20190416c_3T2,4,7,4,1,sent,113.5617,17.1287,4,1,0
FED_20190416c_3T2,4,8,76,5,jap,135.7151,22.563000000000002,2,4,0
FED_20190416c_3T2,2,2,56,4,sent,10.0605,6.2829999999999995,2,2,1
FED_20190416c_3T2,2,3,20,2,jap,21.3955,18.3151,3,3,1
FED_20190416c_3T2,2,4,92,6,en,44.7662,13.5654,2,2,1
FED_20190416c_3T2,2,6,74,5,en,73.4041,13.8531,4,3,0
FED_20190416c_3T2,2,7,2,1,jap,92.3072,37.95,2,2,1
FED_20190416c_3T2,2,8,38,3,sent,135.3142,27.5691,2,2,1
FED_20190416c_3T2,3,2,3,1,en,10.0556,14.2265,2,2,1
FED_20190416c_3T2,3,3,39,3,jap,29.3419,11.9256,1,1,1
FED_20190416c_3T2,3,4,75,5,sent,46.2947,8.1472,2,2,1
FED_20190416c_3T2,3,6,93,6,sent,69.5151,13.4099,3,3,1
FED_20190416c_3T2,3,7,57,4,jap,87.9849,10.0781,1,4,0
FED_20190416c_3T2,3,8,21,2,en,103.1208,17.9301,3,3,1
FED_20190416c_3T2,8,2,62,4,sent,10.0516,9.6091,4,4,1
FED_20190416c_3T2,8,3,26,2,jap,24.7208,32.7337,3,3,1
FED_20190416c_3T2,8,4,98,6,en,62.5102,17.7043,1,1,1
FED_20190416c_3T2,8,6,80,5,en,95.2823,18.8338,3,3,1
FED_20190416c_3T2,8,7,8,1,jap,119.1692,21.1447,2,2,1
FED_20190416c_3T2,8,8,44,3,sent,145.3569,9.5816,1,1,1
FED_20190416c_3T2,9,2,9,1,en,10.0558,15.4207,2,2,1
FED_20190416c_3T2,9,3,45,3,jap,30.5255,17.4601,1,1,1
FED_20190416c_3T2,9,4,81,5,sent,53.0459,16.6917,2,3,0
FED_20190416c_3T2,9,6,99,6,sent,84.8011,19.2941,1,4,0
FED_20190416c_3T2,9,7,63,4,jap,109.1384,33.7667,4,4,1
FED_20190416c_3T2,9,8,27,2,en,147.9616,27.9382,1,1,1
FED_20190416c_3T2,6,2,24,2,en,10.0468,21.7447,4,4,1
FED_20190416c_3T2,6,3,96,6,sent,36.8177,17.1503,2,2,1
FED_20190416c_3T2,6,4,60,4,jap,59.0215,18.2255,3,3,1
FED_20190416c_3T2,6,6,42,3,jap,92.3435,10.4865,3,3,1
FED_20190416c_3T2,6,7,78,5,sent,107.8793,14.8797,3,3,1
FED_20190416c_3T2,6,8,6,1,en,127.816,16.8441,3,3,1
FED_20190416c_3T2,7,2,79,5,jap,10.0524,30.1477,2,2,1
FED_20190416c_3T2,7,3,43,3,en,45.258,29.1064,2,2,1
FED_20190416c_3T2,7,4,7,1,sent,79.4303,11.0427,3,3,1
FED_20190416c_3T2,7,6,25,2,sent,105.5512,26.223000000000003,3,3,1
FED_20190416c_3T2,7,7,61,4,en,136.8229,9.9957,3,3,1
FED_20190416c_3T2,7,8,97,6,jap,151.8586,18.3501,1,1,1
FED_20190416c_3T2,11,2,47,3,sent,10.0569,49.2988,1,4,0
FED_20190416c_3T2,11,3,83,5,en,64.4157,19.1113,3,3,1
FED_20190416c_3T2,11,4,11,1,jap,88.5863,15.5428,1,1,1
FED_20190416c_3T2,11,6,29,2,jap,119.208,25.1965,2,2,1
FED_20190416c_3T2,11,7,101,6,en,149.4293,9.712,1,1,1
FED_20190416c_3T2,11,8,65,4,sent,164.1984,14.4625,1,1,1
FED_20190416c_3T2,10,2,100,6,jap,10.0491,12.7336,2,2,1
FED_20190416c_3T2,10,3,28,2,sent,27.8352,31.5548,2,3,0
FED_20190416c_3T2,10,4,64,4,en,64.4411,16.1885,2,1,0
FED_20190416c_3T2,10,6,46,3,en,95.6963,19.494,1,1,1
FED_20190416c_3T2,10,7,10,1,sent,120.2501,25.0645,2,2,1
FED_20190416c_3T2,10,8,82,5,jap,150.372,12.3931,2,2,1
FED_20190416c_3T2,1,2,73,5,jap,10.0516,19.0197,1,1,1
FED_20190416c_3T2,1,3,37,3,en,34.1224,18.0481,3,3,1
FED_20190416c_3T2,1,4,1,1,sent,57.2259,14.1169,1,1,1
FED_20190416c_3T2,1,6,19,2,sent,86.414,25.309,2,2,1
FED_20190416c_3T2,1,7,55,4,en,116.7858,6.6667,1,1,1
FED_20190416c_3T2,1,8,91,6,jap,128.4875,13.3229,2,2,1
FED_20190226a_3T2,14,2,50,3,sent,10.0798,25.9571,3,3,1
FED_20190226a_3T2,14,3,86,5,en,41.1015,11.1081,2,2,1
FED_20190226a_3T2,14,4,14,1,jap,57.2372,21.2201,2,2,1
FED_20190226a_3T2,14,6,32,2,jap,93.5265,26.8921,2,2,1
FED_20190226a_3T2,14,7,104,6,en,125.4651,5.2225,1,2,0
FED_20190226a_3T2,14,8,68,4,sent,135.7501,23.1276,2,2,1
FED_20190226a_3T2,15,2,33,2,en,10.0554,26.5667,3,3,1
FED_20190226a_3T2,15,3,105,6,sent,41.6773,19.78,2,3,0
FED_20190226a_3T2,15,4,69,4,jap,66.4978,10.6127,3,3,1
FED_20190226a_3T2,15,6,51,3,jap,92.2021,11.0684,2,2,1
FED_20190226a_3T2,15,7,87,5,sent,108.3046,22.1807,3,4,0
FED_20190226a_3T2,15,8,15,1,en,135.5257,13.7442,3,3,1
FED_20190226a_3T2,7,2,97,6,jap,10.0648,15.3704,1,1,1
FED_20190226a_3T2,7,3,25,2,sent,30.4847,17.034000000000002,3,3,1
FED_20190226a_3T2,7,4,61,4,en,52.5551,11.7229,3,3,1
FED_20190226a_3T2,7,6,43,3,en,79.3929,20.6588,2,2,1
FED_20190226a_3T2,7,7,7,1,sent,105.1136,12.0797,3,3,1
FED_20190226a_3T2,7,8,79,5,jap,122.2329,23.9125,2,2,1
FED_20190226a_3T2,6,2,6,1,en,10.0638,9.6104,3,3,1
FED_20190226a_3T2,6,3,42,3,jap,24.7331,8.115,3,3,1
FED_20190226a_3T2,6,4,78,5,sent,37.8849,11.5127,3,3,1
FED_20190226a_3T2,6,6,96,6,sent,64.4893,16.0633,2,2,1
FED_20190226a_3T2,6,7,60,4,jap,85.6095,24.0792,3,3,1
FED_20190226a_3T2,6,8,24,2,en,114.7476,31.6297,4,4,1
FED_20190226a_3T2,13,2,103,6,jap,10.0634,14.5807,2,2,1
FED_20190226a_3T2,13,3,31,2,sent,29.6999,42.0686,1,1,1
FED_20190226a_3T2,13,4,67,4,en,76.8243,14.4856,2,2,1
FED_20190226a_3T2,13,6,49,3,en,106.3957,10.0047,3,3,1
FED_20190226a_3T2,13,7,13,1,sent,121.4482,8.4426,3,3,1
FED_20190226a_3T2,13,8,85,5,jap,134.9504,11.2213,1,1,1
FED_20190226a_3T2,12,2,12,1,en,10.0518,34.1758,2,2,1
FED_20190226a_3T2,12,3,48,3,jap,49.2914,11.1059,2,2,1
FED_20190226a_3T2,12,4,84,5,sent,65.4273,20.9172,2,2,1
FED_20190226a_3T2,12,6,102,6,sent,101.4332,29.1299,1,1,1
FED_20190226a_3T2,12,7,66,4,jap,135.5888,11.7395,1,1,1
FED_20190226a_3T2,12,8,30,2,en,152.3914,15.129000000000001,2,2,1
FED_20190226a_3T2,1,2,91,6,jap,10.1363,16.7357,2,2,1
FED_20190226a_3T2,1,3,19,2,sent,31.9896,27.0123,2,2,1
FED_20190226a_3T2,1,4,55,4,en,64.0613,6.6066,1,1,1
FED_20190226a_3T2,1,6,37,3,en,85.7316,8.7711,3,3,1
FED_20190226a_3T2,1,7,1,1,sent,99.5672,15.9865,1,1,1
FED_20190226a_3T2,1,8,73,5,jap,120.604,21.6257,1,1,1
FED_20190226a_3T2,4,2,76,5,jap,10.049,13.6342,2,2,1
FED_20190226a_3T2,4,3,40,3,en,28.7351,10.4287,2,2,1
FED_20190226a_3T2,4,4,4,1,sent,44.2212,22.8044,4,4,1
FED_20190226a_3T2,4,6,22,2,sent,82.1105,23.4675,2,4,0
FED_20190226a_3T2,4,7,58,4,en,110.6319,17.9035,2,2,1
FED_20190226a_3T2,4,8,94,6,jap,133.569,16.0989,2,2,1
FED_20190226a_3T2,5,2,59,4,sent,10.0524,29.0591,1,4,0
FED_20190226a_3T2,5,3,23,2,jap,44.1745,22.2169,3,3,1
FED_20190226a_3T2,5,4,95,6,en,71.4456,8.9503,2,2,1
FED_20190226a_3T2,5,6,77,5,en,95.4995,27.3596,4,4,1
FED_20190226a_3T2,5,7,5,1,jap,127.88799999999999,27.8197,3,3,1
FED_20190226a_3T2,5,8,41,3,sent,160.7601,50.0004,1,2,0
FED_20190226a_3T2,10,2,82,5,jap,10.0498,11.0501,2,2,1
FED_20190226a_3T2,10,3,46,3,en,26.1357,25.6642,1,1,1
FED_20190226a_3T2,10,4,10,1,sent,56.8408,15.5024,2,2,1
FED_20190226a_3T2,10,6,28,2,sent,87.4124,37.8266,2,1,0
FED_20190226a_3T2,10,7,64,4,en,130.2693,21.247,2,4,0
FED_20190226a_3T2,10,8,100,6,jap,156.55700000000002,14.7128,2,2,1
FED_20190226a_3T2,11,2,65,4,sent,10.0429,9.3399,1,1,1
FED_20190226a_3T2,11,3,29,2,jap,24.4451,19.9989,2,2,1
FED_20190226a_3T2,11,4,101,6,en,49.4992,12.2044,1,1,1
FED_20190226a_3T2,11,6,83,5,en,76.7703,19.9812,3,1,0
FED_20190226a_3T2,11,7,11,1,jap,101.7911,18.3301,1,1,1
FED_20190226a_3T2,11,8,47,3,sent,125.1783,50.0005,1,4,0
FED_20190226a_3T2,3,2,21,2,en,10.0597,16.0554,3,3,1
FED_20190226a_3T2,3,3,93,6,sent,31.1464,8.1128,3,1,0
FED_20190226a_3T2,3,4,57,4,jap,44.315,8.3786,1,1,1
FED_20190226a_3T2,3,6,39,3,jap,67.7689,17.6662,1,1,1
FED_20190226a_3T2,3,7,75,5,sent,90.4893,9.0415,2,2,1
FED_20190226a_3T2,3,8,3,1,en,104.5916,23.4933,2,2,1
FED_20190226a_3T2,2,2,38,3,sent,10.0429,18.5673,2,2,1
FED_20190226a_3T2,2,3,74,5,en,33.6633,14.6917,4,3,0
FED_20190226a_3T2,2,4,2,1,jap,53.4165,45.3326,2,2,1
FED_20190226a_3T2,2,6,20,2,jap,113.8098,18.7737,3,3,1
FED_20190226a_3T2,2,7,92,6,en,137.6302,32.0044,2,4,0
FED_20190226a_3T2,2,8,56,4,sent,174.6696,8.5279,2,2,1
FED_20190226a_3T2,9,2,27,2,en,10.0588,25.1021,1,1,1
FED_20190226a_3T2,9,3,99,6,sent,40.2303,12.8075,1,1,1
FED_20190226a_3T2,9,4,63,4,jap,58.0997,22.2764,4,4,1
FED_20190226a_3T2,9,6,45,3,jap,95.4557,11.950999999999999,1,1,1
FED_20190226a_3T2,9,7,81,5,sent,112.4419,23.2775,2,3,0
FED_20190226a_3T2,9,8,9,1,en,140.7632,13.6126,2,2,1
FED_20190226a_3T2,8,2,44,3,sent,10.0516,6.5429,1,1,1
FED_20190226a_3T2,8,3,80,5,en,21.6535,26.3926,3,3,1
FED_20190226a_3T2,8,4,8,1,jap,53.0922,15.7007,2,2,1
FED_20190226a_3T2,8,6,26,2,jap,83.8805,27.7972,3,3,1
FED_20190226a_3T2,8,7,98,6,en,116.7191,9.0753,1,4,0
FED_20190226a_3T2,8,8,62,4,sent,130.8547,14.7362,4,4,1
FED_20190416b_3T2,4,2,4,1,en,10.0628,6.115,4,4,1
FED_20190416b_3T2,4,3,40,3,jap,21.2311,11.0333,2,2,1
FED_20190416b_3T2,4,4,76,5,sent,37.3174,13.0265,2,2,1
FED_20190416b_3T2,4,6,94,6,sent,65.422,9.8215,2,2,1
FED_20190416b_3T2,4,7,58,4,jap,80.3077,24.2876,2,2,1
FED_20190416b_3T2,4,8,22,2,en,109.6458,11.6847,2,2,1
FED_20190416b_3T2,5,2,95,6,jap,10.0553,20.5486,2,2,1
FED_20190416b_3T2,5,3,23,2,sent,35.6427,9.3355,3,3,1
FED_20190416b_3T2,5,4,59,4,en,50.0284,21.5027,1,1,1
FED_20190416b_3T2,5,6,41,3,en,86.6011,17.1136,1,1,1
FED_20190416b_3T2,5,7,5,1,sent,108.7546,23.4114,3,4,0
FED_20190416b_3T2,5,8,77,5,jap,137.2092,21.2475,4,4,1
FED_20190416b_3T2,11,2,101,6,jap,10.0516,8.287,1,1,1
FED_20190416b_3T2,11,3,29,2,sent,23.3874,32.7905,2,2,1
FED_20190416b_3T2,11,4,65,4,en,61.2269,8.3608,1,1,1
FED_20190416b_3T2,11,6,47,3,en,84.6806,27.9056,1,1,1
FED_20190416b_3T2,11,7,11,1,sent,117.6192,29.5531,1,1,1
FED_20190416b_3T2,11,8,83,5,jap,152.225,14.5993,3,3,1
FED_20190416b_3T2,10,2,10,1,en,10.0593,8.1558,2,2,1
FED_20190416b_3T2,10,3,46,3,jap,23.2445,18.6813,1,1,1
FED_20190416b_3T2,10,4,82,5,sent,46.982,9.8418,2,2,1
FED_20190416b_3T2,10,6,100,6,sent,71.88600000000001,8.6671,2,2,1
FED_20190416b_3T2,10,7,64,4,jap,85.6047,19.0948,2,1,0
FED_20190416b_3T2,10,8,28,2,en,109.7589,35.053000000000004,2,2,1
FED_20190416b_3T2,3,2,57,4,sent,10.0563,7.2197,1,3,0
FED_20190416b_3T2,3,3,21,2,jap,22.3416,15.0956,3,3,1
FED_20190416b_3T2,3,4,93,6,en,42.4947,5.9251,3,3,1
FED_20190416b_3T2,3,6,75,5,en,63.5149,12.0893,2,2,1
FED_20190416b_3T2,3,7,3,1,jap,80.65100000000001,15.7841,2,2,1
FED_20190416b_3T2,3,8,39,3,sent,101.5043,15.6367,1,1,1
FED_20190416b_3T2,2,2,74,5,jap,10.0619,16.8166,4,3,0
FED_20190416b_3T2,2,3,38,3,en,31.9321,18.528,2,2,1
FED_20190416b_3T2,2,4,2,1,sent,55.5193,23.6554,2,3,0
FED_20190416b_3T2,2,6,20,2,sent,94.2423,20.4879,3,3,1
FED_20190416b_3T2,2,7,56,4,en,119.7796,17.8778,2,2,1
FED_20190416b_3T2,2,8,92,6,jap,142.7,12.3809,2,2,1
FED_20190416b_3T2,9,2,63,4,sent,10.0382,8.7536,4,4,1
FED_20190416b_3T2,9,3,27,2,jap,23.8406,13.6784,1,1,1
FED_20190416b_3T2,9,4,99,6,en,42.5601,10.4847,1,1,1
FED_20190416b_3T2,9,6,81,5,en,68.1312,23.4806,2,4,0
FED_20190416b_3T2,9,7,9,1,jap,96.6692,12.985999999999999,2,2,1
FED_20190416b_3T2,9,8,45,3,sent,114.6886,24.0427,1,1,1
FED_20190416b_3T2,8,2,80,5,jap,10.0514,16.742,3,3,1
FED_20190416b_3T2,8,3,44,3,en,31.8551,6.1649,1,1,1
FED_20190416b_3T2,8,4,8,1,sent,43.0737,10.9385,2,2,1
FED_20190416b_3T2,8,6,26,2,sent,69.0945,10.9153,3,3,1
FED_20190416b_3T2,8,7,62,4,en,85.0468,11.0045,4,4,1
FED_20190416b_3T2,8,8,98,6,jap,101.1164,12.7752,1,1,1
FED_20190416b_3T2,7,2,25,2,en,10.0548,14.5792,3,3,1
FED_20190416b_3T2,7,3,97,6,sent,29.6914,11.6251,1,1,1
FED_20190416b_3T2,7,4,61,4,jap,46.3607,11.6099,3,3,1
FED_20190416b_3T2,7,6,43,3,jap,73.0649,23.7763,2,2,1
FED_20190416b_3T2,7,7,79,5,sent,101.8863,18.6899,2,1,0
FED_20190416b_3T2,7,8,7,1,en,125.6404,6.4315,3,3,1
FED_20190416b_3T2,6,2,42,3,sent,10.0475,5.9832,3,3,1
FED_20190416b_3T2,6,3,78,5,en,21.0825,12.43,3,3,1
FED_20190416b_3T2,6,4,6,1,jap,38.5687,14.918,3,3,1
FED_20190416b_3T2,6,6,24,2,jap,68.5567,25.4363,4,4,1
FED_20190416b_3T2,6,7,96,6,en,99.045,10.3105,2,2,1
FED_20190416b_3T2,6,8,60,4,sent,114.4145,20.3068,3,3,1
FED_20190416b_3T2,1,2,19,2,en,10.0506,17.0459,2,2,1
FED_20190416b_3T2,1,3,91,6,sent,32.1207,33.2493,2,2,1
FED_20190416b_3T2,1,4,55,4,jap,70.4272,6.5404,1,1,1
FED_20190416b_3T2,1,6,37,3,jap,92.0472,7.5436,3,3,1
FED_20190416b_3T2,1,7,73,5,sent,104.6492,14.7711,1,1,1
FED_20190416b_3T2,1,8,1,1,en,124.4861,13.8137,1,1,1
FED_20190416b_3T2,12,2,48,3,sent,10.0536,10.6486,2,2,1
FED_20190416b_3T2,12,3,84,5,en,25.7563,13.7044,2,2,1
FED_20190416b_3T2,12,4,12,1,jap,44.5258,13.1361,2,2,1
FED_20190416b_3T2,12,6,30,2,jap,72.7471,10.492,2,2,1
FED_20190416b_3T2,12,7,102,6,en,88.2661,12.7553,1,1,1
FED_20190416b_3T2,12,8,66,4,sent,106.0859,9.1643,1,1,1
FED_20190314c_3T2,9,2,99,6,jap,10.0495,17.1194,1,1,1
FED_20190314c_3T2,9,3,27,2,sent,32.2198,17.4052,1,2,0
FED_20190314c_3T2,9,4,63,4,en,54.6736,15.0838,4,4,1
FED_20190314c_3T2,9,6,45,3,en,84.8451,9.9255,1,1,1
FED_20190314c_3T2,9,7,9,1,sent,99.8309,10.8246,2,2,1
FED_20190314c_3T2,9,8,81,5,jap,115.7001,22.3881,2,2,1
FED_20190314c_3T2,8,2,8,1,en,10.0539,8.4795,2,2,1
FED_20190314c_3T2,8,3,44,3,jap,23.5726,7.8565,1,1,1
FED_20190314c_3T2,8,4,80,5,sent,36.4748,45.6861,3,3,1
FED_20190314c_3T2,8,6,98,6,sent,97.2514,13.0585,1,1,1
FED_20190314c_3T2,8,7,62,4,jap,115.37100000000001,14.8951,4,2,0
FED_20190314c_3T2,8,8,26,2,en,135.3243,20.6255,3,3,1
FED_20190314c_3T2,3,2,93,6,jap,10.0486,8.0927,3,3,1
FED_20190314c_3T2,3,3,21,2,sent,23.1839,23.0401,3,3,1
FED_20190314c_3T2,3,4,57,4,en,51.2884,7.165,1,4,0
FED_20190314c_3T2,3,6,39,3,en,73.5255,7.943,1,1,1
FED_20190314c_3T2,3,7,3,1,sent,86.5276,18.3142,2,2,1
FED_20190314c_3T2,3,8,75,5,jap,109.8981,21.7399,2,1,0
FED_20190314c_3T2,2,2,2,1,en,10.0598,29.6245,2,2,1
FED_20190314c_3T2,2,3,38,3,jap,44.7321,12.1024,2,2,1
FED_20190314c_3T2,2,4,74,5,sent,61.885,20.1544,4,3,0
FED_20190314c_3T2,2,6,92,6,sent,97.1074,30.1227,2,2,1
FED_20190314c_3T2,2,7,56,4,jap,132.2798,9.9021,2,2,1
FED_20190314c_3T2,2,8,20,2,en,147.2321,10.1849,3,3,1
FED_20190314c_3T2,10,2,46,3,sent,10.0628,16.8406,1,1,1
FED_20190314c_3T2,10,3,82,5,en,31.9663,8.3118,2,2,1
FED_20190314c_3T2,10,4,10,1,jap,45.3183,10.6637,2,2,1
FED_20190314c_3T2,10,6,28,2,jap,71.0726,34.3263,2,2,1
FED_20190314c_3T2,10,7,100,6,en,110.4457,10.5536,2,2,1
FED_20190314c_3T2,10,8,64,4,sent,126.0484,14.7038,2,2,1
FED_20190314c_3T2,11,2,29,2,en,10.0709,12.8011,2,4,0
FED_20190314c_3T2,11,3,101,6,sent,27.9237,11.1257,1,1,1
FED_20190314c_3T2,11,4,65,4,jap,44.0761,15.4693,1,1,1
FED_20190314c_3T2,11,6,47,3,jap,74.6477,29.1321,1,4,0
FED_20190314c_3T2,11,7,83,5,sent,108.8201,22.9417,3,3,1
FED_20190314c_3T2,11,8,11,1,en,136.8247,13.0539,1,1,1
FED_20190314c_3T2,4,2,40,3,sent,10.0461,16.9827,2,1,0
FED_20190314c_3T2,4,3,76,5,en,32.0662,9.9419,2,4,0
FED_20190314c_3T2,4,4,4,1,jap,47.0687,9.3424,4,4,1
FED_20190314c_3T2,4,6,22,2,jap,71.506,14.7539,2,2,1
FED_20190314c_3T2,4,7,94,6,en,91.3093,11.1793,2,2,1
FED_20190314c_3T2,4,8,58,4,sent,107.5287,18.1832,2,2,1
FED_20190314c_3T2,5,2,23,2,en,10.0651,12.6647,3,3,1
FED_20190314c_3T2,5,3,95,6,sent,27.7846,16.0104,2,2,1
FED_20190314c_3T2,5,4,59,4,jap,48.8212,13.1935,1,1,1
FED_20190314c_3T2,5,6,41,3,jap,77.1091,24.2016,1,1,1
FED_20190314c_3T2,5,7,77,5,sent,106.3639,27.0638,4,4,1
FED_20190314c_3T2,5,8,5,1,en,138.4859,19.8878,3,3,1
FED_20190314c_3T2,1,2,55,4,sent,10.0686,17.873,1,1,1
FED_20190314c_3T2,1,3,19,2,jap,33.0055,19.2105,2,2,1
FED_20190314c_3T2,1,4,91,6,en,57.2763,16.1093,2,2,1
FED_20190314c_3T2,1,6,73,5,en,88.4647,10.169,1,1,1
FED_20190314c_3T2,1,7,1,1,jap,103.6836,19.0746,1,1,1
FED_20190314c_3T2,1,8,37,3,sent,127.8211,11.9776,3,1,0
FED_20190314c_3T2,7,2,61,4,sent,10.0566,16.1703,3,3,1
FED_20190314c_3T2,7,3,25,2,jap,31.2766,11.1919,3,1,0
FED_20190314c_3T2,7,4,97,6,en,47.5292,12.9462,1,1,1
FED_20190314c_3T2,7,6,79,5,en,75.5337,23.2329,2,2,1
FED_20190314c_3T2,7,7,7,1,jap,103.805,7.5426,3,3,1
FED_20190314c_3T2,7,8,43,3,sent,116.4071,31.3307,2,2,1
FED_20190314c_3T2,6,2,78,5,jap,10.0435,12.7526,3,1,0
FED_20190314c_3T2,6,3,42,3,en,27.8464,8.8167,3,3,1
FED_20190314c_3T2,6,4,6,1,sent,41.7152,11.3816,3,3,1
FED_20190314c_3T2,6,6,24,2,sent,68.1863,11.4412,4,4,1
FED_20190314c_3T2,6,7,60,4,en,84.689,10.4521,3,2,0
FED_20190314c_3T2,6,8,96,6,jap,100.1747,8.503,2,2,1
FED_20190314c_3T2,12,2,84,5,jap,10.0455,24.7812,2,1,0
FED_20190314c_3T2,12,3,48,3,en,39.8836,13.6878,2,2,1
FED_20190314c_3T2,12,4,12,1,sent,58.6199,23.8331,2,2,1
FED_20190314c_3T2,12,6,30,2,sent,97.54299999999999,12.2034,2,2,1
FED_20190314c_3T2,12,7,66,4,en,114.7958,6.3494,1,1,1
FED_20190314c_3T2,12,8,102,6,jap,126.1976,30.0737,1,1,1
FED_20190226d_3T2,18,2,36,2,en,10.041,14.8577,1,1,1
FED_20190226d_3T2,18,3,108,6,sent,29.9611,21.1034,3,3,1
FED_20190226d_3T2,18,4,72,4,jap,56.1153,8.8532,2,2,1
FED_20190226d_3T2,18,6,54,3,jap,80.0691,24.3712,4,4,1
FED_20190226d_3T2,18,7,90,5,sent,109.5074,10.4977,2,2,1
FED_20190226d_3T2,18,8,18,1,en,125.0599,11.5763,2,2,1
FED_20190226d_3T2,12,2,30,2,en,10.0359,10.7097,2,2,1
FED_20190226d_3T2,12,3,102,6,sent,25.8053,27.7911,1,1,1
FED_20190226d_3T2,12,4,66,4,jap,58.644,12.5591,1,1,1
FED_20190226d_3T2,12,6,48,3,jap,86.2817,15.4429,2,4,0
FED_20190226d_3T2,12,7,84,5,sent,106.7852,19.4583,2,2,1
FED_20190226d_3T2,12,8,12,1,en,131.306,24.1464,2,2,1
FED_20190226d_3T2,13,2,85,5,jap,10.0488,7.8623,1,1,1
FED_20190226d_3T2,13,3,49,3,en,22.9675,8.6018,3,3,1
FED_20190226d_3T2,13,4,13,1,sent,36.6197,10.2495,3,3,1
FED_20190226d_3T2,13,6,31,2,sent,61.9738,18.7873,1,1,1
FED_20190226d_3T2,13,7,67,4,en,85.8278,9.1578,2,2,1
FED_20190226d_3T2,13,8,103,6,jap,100.0303,21.4121,2,2,1
FED_20190226d_3T2,6,2,24,2,en,10.0565,24.2565,4,4,1
FED_20190226d_3T2,6,3,96,6,sent,39.3612,8.4938,2,2,1
FED_20190226d_3T2,6,4,60,4,jap,52.9133,7.4242,3,3,1
FED_20190226d_3T2,6,6,42,3,jap,75.4337,5.5215,3,3,1
FED_20190226d_3T2,6,7,78,5,sent,86.00200000000001,13.6098,3,3,1
FED_20190226d_3T2,6,8,6,1,en,104.6551,8.9338,3,3,1
FED_20190226d_3T2,7,2,79,5,jap,10.052999999999999,19.8556,2,4,0
FED_20190226d_3T2,7,3,43,3,en,34.9738,18.3971,2,2,1
FED_20190226d_3T2,7,4,7,1,sent,58.4278,7.3219,3,3,1
FED_20190226d_3T2,7,6,25,2,sent,80.8312,19.8082,3,3,1
FED_20190226d_3T2,7,7,61,4,en,105.70200000000001,8.7436,3,3,1
FED_20190226d_3T2,7,8,97,6,jap,119.4876,11.1955,1,1,1
FED_20190226d_3T2,1,2,73,5,jap,10.0479,22.5471,1,1,1
FED_20190226d_3T2,1,3,37,3,en,37.619,6.9368,3,3,1
FED_20190226d_3T2,1,4,1,1,sent,49.6043,8.7738,1,1,1
FED_20190226d_3T2,1,6,19,2,sent,73.4747,41.6766,2,2,1
FED_20190226d_3T2,1,7,55,4,en,120.199,7.0248,1,1,1
FED_20190226d_3T2,1,8,91,6,jap,132.2844,12.6568,2,2,1
FED_20190226d_3T2,15,2,15,1,en,10.0469,13.095999999999998,3,3,1
FED_20190226d_3T2,15,3,51,3,jap,28.1998,8.104,2,2,1
FED_20190226d_3T2,15,4,87,5,sent,41.352,28.1034,3,4,0
FED_20190226d_3T2,15,6,105,6,sent,84.5422,22.0661,2,3,0
FED_20190226d_3T2,15,7,69,4,jap,111.6633,17.02,3,4,0
FED_20190226d_3T2,15,8,33,2,en,133.7335,25.2725,3,3,1
FED_20190226d_3T2,14,2,68,4,sent,10.0579,23.8281,2,2,1
FED_20190226d_3T2,14,3,32,2,jap,38.9293,17.7276,2,2,1
FED_20190226d_3T2,14,4,104,6,en,61.7163,12.1251,1,1,1
FED_20190226d_3T2,14,6,86,5,en,88.9041,14.8421,2,2,1
FED_20190226d_3T2,14,7,14,1,jap,108.7906,17.1984,2,2,1
FED_20190226d_3T2,14,8,50,3,sent,131.0442,18.7456,3,2,0
FED_20190226d_3T2,5,2,41,3,sent,10.0805,38.8336,1,2,0
FED_20190226d_3T2,5,3,77,5,en,53.95399999999999,23.2589,4,4,1
FED_20190226d_3T2,5,4,5,1,jap,82.2755,9.8517,3,3,1
FED_20190226d_3T2,5,6,23,2,jap,107.1961,9.6164,3,3,1
FED_20190226d_3T2,5,7,95,6,en,121.8651,10.014,2,2,1
FED_20190226d_3T2,5,8,59,4,sent,136.9344,50.0006,1,1,1
FED_20190226d_3T2,4,2,94,6,jap,10.0549,12.4993,2,2,1
FED_20190226d_3T2,4,3,22,2,sent,27.5912,20.4595,2,2,1
FED_20190226d_3T2,4,4,58,4,en,53.1119,28.8278,2,2,1
FED_20190226d_3T2,4,6,40,3,en,97.0357,9.4172,2,2,1
FED_20190226d_3T2,4,7,4,1,sent,111.5048,8.3237,4,4,1
FED_20190226d_3T2,4,8,76,5,jap,124.8903,21.8322,2,2,1
FED_20190226d_3T2,11,2,47,3,sent,10.0635,30.98,1,1,1
FED_20190226d_3T2,11,3,83,5,en,46.1027,17.737000000000002,3,3,1
FED_20190226d_3T2,11,4,11,1,jap,68.89,7.0599,1,1,1
FED_20190226d_3T2,11,6,29,2,jap,91.0434,17.4162,2,4,0
FED_20190226d_3T2,11,7,101,6,en,113.5137,11.838,1,1,1
FED_20190226d_3T2,11,8,65,4,sent,130.3999,11.0625,1,1,1
FED_20190226d_3T2,10,2,100,6,jap,10.055,9.7929,2,2,1
FED_20190226d_3T2,10,3,28,2,sent,24.8904,27.3979,2,2,1
FED_20190226d_3T2,10,4,64,4,en,57.3459,17.3733,2,2,1
FED_20190226d_3T2,10,6,46,3,en,89.801,11.7212,1,1,1
FED_20190226d_3T2,10,7,10,1,sent,106.5706,20.2514,2,2,1
FED_20190226d_3T2,10,8,82,5,jap,131.8579,13.2044,2,2,1
FED_20190226d_3T2,16,2,106,6,jap,10.0679,18.1916,3,3,1
FED_20190226d_3T2,16,3,34,2,sent,33.3219,15.2132,1,1,1
FED_20190226d_3T2,16,4,70,4,en,53.5918,8.3318,1,3,0
FED_20190226d_3T2,16,6,52,3,en,77.0121,16.1633,3,3,1
FED_20190226d_3T2,16,7,16,1,sent,98.2324,39.4336,3,3,1
FED_20190226d_3T2,16,8,88,5,jap,142.6894,19.6584,2,2,1
FED_20190226d_3T2,17,2,53,3,sent,10.0585,11.789000000000001,1,1,1
FED_20190226d_3T2,17,3,89,5,en,26.8946,12.2077,1,1,1
FED_20190226d_3T2,17,4,17,1,jap,44.163999999999994,14.558,2,2,1
FED_20190226d_3T2,17,6,35,2,jap,73.7855,30.4476,3,3,1
FED_20190226d_3T2,17,7,107,6,en,109.2914,24.7481,1,1,1
FED_20190226d_3T2,17,8,71,4,sent,139.0963,11.5801,3,3,1
FED_20190226d_3T2,8,2,62,4,sent,10.0474,22.4581,4,4,1
FED_20190226d_3T2,8,3,26,2,jap,37.5518,22.4062,3,3,1
FED_20190226d_3T2,8,4,98,6,en,65.0063,18.4264,1,1,1
FED_20190226d_3T2,8,6,80,5,en,98.5284,15.0344,3,3,1
FED_20190226d_3T2,8,7,8,1,jap,118.6152,11.1853,2,2,1
FED_20190226d_3T2,8,8,44,3,sent,134.851,7.9499,1,1,1
FED_20190226d_3T2,9,2,9,1,en,10.0436,5.2546,2,2,1
FED_20190226d_3T2,9,3,45,3,jap,20.3618,15.5833,1,4,0
FED_20190226d_3T2,9,4,81,5,sent,40.9986,14.8762,2,2,1
FED_20190226d_3T2,9,6,99,6,sent,70.9534,8.5632,1,1,1
FED_20190226d_3T2,9,7,63,4,jap,84.5724,17.0663,4,4,1
FED_20190226d_3T2,9,8,27,2,en,106.6926,8.9847,1,1,1
FED_20190226d_3T2,2,2,56,4,sent,10.0565,7.869,2,2,1
FED_20190226d_3T2,2,3,20,2,jap,22.9916,10.8921,3,3,1
FED_20190226d_3T2,2,4,92,6,en,38.911,11.3389,2,2,1
FED_20190226d_3T2,2,6,74,5,en,65.3485,35.5788,4,3,0
FED_20190226d_3T2,2,7,2,1,jap,105.9718,27.5896,2,2,1
FED_20190226d_3T2,2,8,38,3,sent,138.6105,16.3219,2,2,1
FED_20190226d_3T2,3,2,3,1,en,10.0484,18.017,2,2,1
FED_20190226d_3T2,3,3,39,3,jap,33.1189,8.1169,1,1,1
FED_20190226d_3T2,3,4,75,5,sent,46.2877,11.0129,2,2,1
FED_20190226d_3T2,3,6,93,6,sent,72.3752,17.2915,3,3,1
FED_20190226d_3T2,3,7,57,4,jap,94.6955,6.1982,1,1,1
FED_20190226d_3T2,3,8,21,2,en,105.9473,18.549,3,3,1
FED_20190319a_3T2,5,2,77,5,jap,10.0523,12.3652,4,4,1
FED_20190319a_3T2,5,3,41,3,en,27.4551,9.2282,1,2,0
FED_20190319a_3T2,5,4,5,1,sent,41.7408,15.892999999999999,3,4,0
FED_20190319a_3T2,5,6,23,2,sent,72.7125,8.5758,3,3,1
FED_20190319a_3T2,5,7,59,4,en,86.3481,17.2111,1,1,1
FED_20190319a_3T2,5,8,95,6,jap,108.6183,8.8982,2,2,1
FED_20190319a_3T2,4,2,22,2,en,10.052,5.807,2,2,1
FED_20190319a_3T2,4,3,94,6,sent,20.9204,16.3657,2,4,0
FED_20190319a_3T2,4,4,58,4,jap,42.3405,19.7975,2,2,1
FED_20190319a_3T2,4,6,40,3,jap,77.2128,5.9146,2,2,1
FED_20190319a_3T2,4,7,76,5,sent,88.1814,7.5948,2,2,1
FED_20190319a_3T2,4,8,4,1,en,100.8167,5.052,4,4,1
FED_20190319a_3T2,12,2,66,4,sent,10.041,6.4076,1,1,1
FED_20190319a_3T2,12,3,30,2,jap,21.4928,9.0988,2,2,1
FED_20190319a_3T2,12,4,102,6,en,35.6452,11.1454,1,1,1
FED_20190319a_3T2,12,6,84,5,en,61.8495,9.9265,2,2,1
FED_20190319a_3T2,12,7,12,1,jap,76.8185,12.8397,2,2,1
FED_20190319a_3T2,12,8,48,3,sent,94.7048,8.4328,2,2,1
FED_20190319a_3T2,8,2,98,6,jap,10.0683,13.2117,1,1,1
FED_20190319a_3T2,8,3,26,2,sent,28.3379,7.6845,3,3,1
FED_20190319a_3T2,8,4,62,4,en,41.0565,6.0226,4,3,0
FED_20190319a_3T2,8,6,44,3,en,62.1601,5.5559,1,1,1
FED_20190319a_3T2,8,7,8,1,sent,72.7617,7.5753,2,2,1
FED_20190319a_3T2,8,8,80,5,jap,85.3973,11.562999999999999,3,3,1
FED_20190319a_3T2,9,2,45,3,sent,10.0517,8.7752,1,1,1
FED_20190319a_3T2,9,3,81,5,en,23.8707,19.8716,2,2,1
FED_20190319a_3T2,9,4,9,1,jap,48.7746,6.4325,2,2,1
FED_20190319a_3T2,9,6,27,2,jap,70.2949,10.491,1,1,1
FED_20190319a_3T2,9,7,99,6,en,85.8139,9.4194,1,1,1
FED_20190319a_3T2,9,8,63,4,sent,100.2831,11.0528,4,4,1
FED_20190319a_3T2,2,2,92,6,jap,10.0679,9.3263,2,2,1
FED_20190319a_3T2,2,3,20,2,sent,24.4534,8.2545,3,3,1
FED_20190319a_3T2,2,4,56,4,en,37.7722,8.5415,2,2,1
FED_20190319a_3T2,2,6,38,3,en,61.376000000000005,7.4889,2,2,1
FED_20190319a_3T2,2,7,2,1,sent,73.9113,16.500999999999998,2,2,1
FED_20190319a_3T2,2,8,74,5,jap,95.4649,11.5913,4,3,0
FED_20190319a_3T2,3,2,39,3,sent,10.0553,6.4816,1,1,1
FED_20190319a_3T2,3,3,75,5,en,21.5903,7.8609,2,2,1
FED_20190319a_3T2,3,4,3,1,jap,34.4923,16.4195,2,2,1
FED_20190319a_3T2,3,6,21,2,jap,65.9807,13.2627,3,3,1
FED_20190319a_3T2,3,7,93,6,en,84.3006,7.1642,3,3,1
FED_20190319a_3T2,3,8,57,4,sent,96.5191,5.3745,1,1,1
FED_20190319a_3T2,6,2,60,4,sent,10.0615,10.1416,3,3,1
FED_20190319a_3T2,6,3,24,2,jap,25.2642,22.7599,4,4,1
FED_20190319a_3T2,6,4,96,6,en,53.0686,7.6355,2,2,1
FED_20190319a_3T2,6,6,78,5,en,75.8055,14.3302,3,3,1
FED_20190319a_3T2,6,7,6,1,jap,95.1921,10.5359,3,3,1
FED_20190319a_3T2,6,8,42,3,sent,110.7612,5.5454,3,3,1
FED_20190319a_3T2,7,2,7,1,en,10.0432,6.2059,3,3,1
FED_20190319a_3T2,7,3,43,3,jap,21.3117,16.8754,2,2,1
FED_20190319a_3T2,7,4,79,5,sent,43.2319,14.0029,2,4,0
FED_20190319a_3T2,7,6,97,6,sent,72.3367,10.0895,1,1,1
FED_20190319a_3T2,7,7,61,4,jap,87.4891,7.8168,3,3,1
FED_20190319a_3T2,7,8,25,2,en,100.3577,22.8231,3,4,0
FED_20190319a_3T2,1,2,1,1,en,10.1451,7.8025,1,1,1
FED_20190319a_3T2,1,3,37,3,jap,23.0466,7.0137,3,3,1
FED_20190319a_3T2,1,4,73,5,sent,35.0985,8.5709,1,1,1
FED_20190319a_3T2,1,6,91,6,sent,58.7525,15.6029,2,2,1
FED_20190319a_3T2,1,7,55,4,jap,79.3891,6.4855,1,1,1
FED_20190319a_3T2,1,8,19,2,en,90.9244,8.3407,2,2,1
FED_20190319a_3T2,11,2,83,5,jap,10.0505,10.0995,3,3,1
FED_20190319a_3T2,11,3,47,3,en,25.2032,23.2156,1,4,0
FED_20190319a_3T2,11,4,11,1,sent,53.4744,21.2501,1,1,1
FED_20190319a_3T2,11,6,29,2,sent,89.79700000000001,21.7044,2,2,1
FED_20190319a_3T2,11,7,65,4,en,116.5346,5.8727,1,1,1
FED_20190319a_3T2,11,8,101,6,jap,127.45299999999999,7.7077,1,1,1
FED_20190319a_3T2,10,2,28,2,en,10.0591,38.5919,2,2,1
FED_20190319a_3T2,10,3,100,6,sent,53.6995,6.0918,2,2,1
FED_20190319a_3T2,10,4,64,4,jap,64.8513,11.7001,2,2,1
FED_20190319a_3T2,10,6,46,3,jap,91.6223,9.217,1,1,1
FED_20190319a_3T2,10,7,82,5,sent,105.8911,5.5635,2,2,1
FED_20190319a_3T2,10,8,10,1,en,116.5096,8.2463,2,2,1
FED_20190319c_3T2,9,2,81,5,jap,10.0552,9.936,2,1,0
FED_20190319c_3T2,9,3,45,3,en,25.0401,14.5551,1,1,1
FED_20190319c_3T2,9,4,9,1,sent,44.6432,16.8723,2,2,1
FED_20190319c_3T2,9,6,27,2,sent,76.6152,18.5473,1,1,1
FED_20190319c_3T2,9,7,63,4,en,100.2191,10.8289,4,3,0
FED_20190319c_3T2,9,8,99,6,jap,116.0715,9.9897,1,1,1
FED_20190319c_3T2,8,2,26,2,en,10.0591,11.7454,3,3,1
FED_20190319c_3T2,8,3,98,6,sent,26.8618,12.9564,1,1,1
FED_20190319c_3T2,8,4,62,4,jap,44.8646,9.9639,4,2,0
FED_20190319c_3T2,8,6,44,3,jap,69.9188,10.3822,1,1,1
FED_20190319c_3T2,8,7,80,5,sent,85.3545,50.0003,3,2,0
FED_20190319c_3T2,8,8,8,1,en,140.3969,9.0498,2,2,1
FED_20190319c_3T2,10,2,64,4,sent,10.0551,25.3056,2,2,1
FED_20190319c_3T2,10,3,28,2,jap,40.4099,29.5403,2,3,0
FED_20190319c_3T2,10,4,100,6,en,74.9989,9.8403,2,4,0
FED_20190319c_3T2,10,6,82,5,en,99.9362,12.1991,2,2,1
FED_20190319c_3T2,10,7,10,1,jap,117.1891,13.3534,2,2,1
FED_20190319c_3T2,10,8,46,3,sent,135.5754,24.3838,1,1,1
FED_20190319c_3T2,11,2,11,1,en,10.0461,16.1348,1,1,1
FED_20190319c_3T2,11,3,47,3,jap,31.2332,20.0682,1,1,1
FED_20190319c_3T2,11,4,83,5,sent,56.3538,27.7274,3,3,1
FED_20190319c_3T2,11,6,101,6,sent,99.1607,11.6767,1,1,1
FED_20190319c_3T2,11,7,65,4,jap,115.8633,10.9691,1,1,1
FED_20190319c_3T2,11,8,29,2,en,131.8827,22.5483,2,2,1
FED_20190319c_3T2,3,2,75,5,jap,10.0463,13.0098,2,2,1
FED_20190319c_3T2,3,3,39,3,en,28.0991,12.8748,1,1,1
FED_20190319c_3T2,3,4,3,1,sent,46.0354,24.1293,2,2,1
FED_20190319c_3T2,3,6,21,2,sent,85.2584,20.8958,3,3,1
FED_20190319c_3T2,3,7,57,4,en,111.2127,7.0412,1,1,1
FED_20190319c_3T2,3,8,93,6,jap,123.3146,8.9925,3,1,0
FED_20190319c_3T2,2,2,20,2,en,10.0388,7.8541,3,3,1
FED_20190319c_3T2,2,3,92,6,sent,22.9411,27.2746,2,3,0
FED_20190319c_3T2,2,4,56,4,jap,55.263000000000005,15.5574,2,2,1
FED_20190319c_3T2,2,6,38,3,jap,85.9013,15.2922,2,2,1
FED_20190319c_3T2,2,7,74,5,sent,106.2548,24.8878,4,1,0
FED_20190319c_3T2,2,8,2,1,en,136.2095,31.1468,2,2,1
FED_20190319c_3T2,4,2,58,4,sent,10.0566,20.8822,2,2,1
FED_20190319c_3T2,4,3,22,2,jap,35.9942,12.9668,2,2,1
FED_20190319c_3T2,4,4,94,6,en,54.0137,19.2275,2,2,1
FED_20190319c_3T2,4,6,76,5,en,88.3026,9.8756,2,2,1
FED_20190319c_3T2,4,7,4,1,jap,103.2385,10.6276,4,4,1
FED_20190319c_3T2,4,8,40,3,sent,118.9242,12.3162,2,2,1
FED_20190319c_3T2,5,2,5,1,en,10.0452,15.9951,3,4,0
FED_20190319c_3T2,5,3,41,3,jap,31.0818,27.1765,1,1,1
FED_20190319c_3T2,5,4,77,5,sent,63.3205,28.0712,4,2,0
FED_20190319c_3T2,5,6,95,6,sent,106.494,26.9547,2,2,1
FED_20190319c_3T2,5,7,59,4,jap,138.4825,20.1798,1,1,1
FED_20190319c_3T2,5,8,23,2,en,163.7201,22.7574,3,3,1
FED_20190319c_3T2,12,2,102,6,jap,10.046,20.3924,1,1,1
FED_20190319c_3T2,12,3,30,2,sent,35.4666,8.6809,2,2,1
FED_20190319c_3T2,12,4,66,4,en,49.2023,7.0475,1,1,1
FED_20190319c_3T2,12,6,48,3,en,71.3393,15.24,2,2,1
FED_20190319c_3T2,12,7,12,1,sent,91.6426,24.4846,2,2,1
FED_20190319c_3T2,12,8,84,5,jap,121.1807,24.0994,2,2,1
FED_20190319c_3T2,1,2,37,3,sent,10.1562,50.0018,3,3,1
FED_20190319c_3T2,1,3,73,5,en,65.2645,30.3953,1,2,0
FED_20190319c_3T2,1,4,1,1,jap,100.7204,50.0012,1,1,1
FED_20190319c_3T2,1,6,19,2,jap,165.8309,50.0013,2,4,0
FED_20190319c_3T2,1,7,91,6,en,220.8898,35.5308,2,2,1
FED_20190319c_3T2,1,8,55,4,sent,261.4798,15.4579,1,1,1
FED_20190319c_3T2,7,2,43,3,sent,10.0668,46.1528,2,2,1
FED_20190319c_3T2,7,3,79,5,en,61.2752,23.6776,2,1,0
FED_20190319c_3T2,7,4,7,1,jap,90.0133,7.2747,3,3,1
FED_20190319c_3T2,7,6,25,2,jap,112.3836,12.360999999999999,3,3,1
FED_20190319c_3T2,7,7,97,6,en,129.803,13.3526,1,1,1
FED_20190319c_3T2,7,8,61,4,sent,148.2061,38.5885,3,3,1
FED_20190319c_3T2,6,2,96,6,jap,10.0467,9.2709,2,2,1
FED_20190319c_3T2,6,3,24,2,sent,24.3659,23.4622,4,4,1
FED_20190319c_3T2,6,4,60,4,en,52.8537,11.8692,3,2,0
FED_20190319c_3T2,6,6,42,3,en,79.7914,8.4247,3,3,1
FED_20190319c_3T2,6,7,6,1,sent,93.2604,13.0103,3,3,1
FED_20190319c_3T2,6,8,78,5,jap,111.3132,23.9324,3,3,1
FED_20190416d_3T2,8,2,8,1,en,10.0674,10.5048,2,2,1
FED_20190416d_3T2,8,3,44,3,jap,25.6199,9.5204,1,1,1
FED_20190416d_3T2,8,4,80,5,sent,40.1888,50.0007,3,4,0
FED_20190416d_3T2,8,6,98,6,sent,105.2661,27.0645,1,1,1
FED_20190416d_3T2,8,7,62,4,jap,137.3881,23.6705,4,2,0
FED_20190416d_3T2,8,8,26,2,en,166.1094,27.0916,3,4,0
FED_20190416d_3T2,9,2,99,6,jap,10.0543,26.1325,1,1,1
FED_20190416d_3T2,9,3,27,2,sent,41.2428,21.6815,1,1,1
FED_20190416d_3T2,9,4,63,4,en,67.947,22.3865,4,4,1
FED_20190416d_3T2,9,6,45,3,en,105.4366,18.1797,1,1,1
FED_20190416d_3T2,9,7,9,1,sent,128.6738,29.3416,2,2,1
FED_20190416d_3T2,9,8,81,5,jap,163.0794,50.0008,2,4,0
FED_20190416d_3T2,2,2,2,1,en,10.0495,34.5941,2,2,1
FED_20190416d_3T2,2,3,38,3,jap,49.7057,30.3719,2,2,1
FED_20190416d_3T2,2,4,74,5,sent,85.1284,41.8296,4,3,0
FED_20190416d_3T2,2,6,92,6,sent,142.0542,50.0009,2,2,1
FED_20190416d_3T2,2,7,56,4,jap,197.1134,15.7651,2,2,1
FED_20190416d_3T2,2,8,20,2,en,217.9333,15.662,3,3,1
FED_20190416d_3T2,3,2,93,6,jap,10.064,9.6905,3,1,0
FED_20190416d_3T2,3,3,21,2,sent,24.7828,26.2095,3,4,0
FED_20190416d_3T2,3,4,57,4,en,56.0379,10.8675,1,1,1
FED_20190416d_3T2,3,6,39,3,en,81.9922,16.6602,1,1,1
FED_20190416d_3T2,3,7,3,1,sent,103.7125,49.013999999999996,2,3,0
FED_20190416d_3T2,3,8,75,5,jap,157.77100000000002,27.8433,2,2,1
FED_20190416d_3T2,11,2,29,2,en,10.0697,38.356,2,2,1
FED_20190416d_3T2,11,3,101,6,sent,53.4767,15.3311,1,1,1
FED_20190416d_3T2,11,4,65,4,jap,73.8466,15.3851,1,1,1
FED_20190416d_3T2,11,6,47,3,jap,104.3015,50.0,1,1,1
FED_20190416d_3T2,11,7,83,5,sent,159.3606,38.8293,3,3,1
FED_20190416d_3T2,11,8,11,1,en,203.25099999999998,17.0639,1,1,1
FED_20190416d_3T2,10,2,46,3,sent,10.059,28.9662,1,1,1
FED_20190416d_3T2,10,3,82,5,en,44.0812,15.0287,2,2,1
FED_20190416d_3T2,10,4,10,1,jap,64.1677,22.53,2,4,0
FED_20190416d_3T2,10,6,28,2,jap,101.7575,50.0002,2,2,1
FED_20190416d_3T2,10,7,100,6,en,156.7829,13.3986,2,2,1
FED_20190416d_3T2,10,8,64,4,sent,175.2362,46.2232,2,2,1
FED_20190416d_3T2,5,2,23,2,en,10.0621,14.5194,3,3,1
FED_20190416d_3T2,5,3,95,6,sent,29.631999999999998,20.0449,2,2,1
FED_20190416d_3T2,5,4,59,4,jap,54.7361,22.0961,1,4,0
FED_20190416d_3T2,5,6,41,3,jap,91.9087,29.4232,1,1,1
FED_20190416d_3T2,5,7,77,5,sent,126.381,42.2227,4,3,0
FED_20190416d_3T2,5,8,5,1,en,173.6552,21.9814,3,3,1
FED_20190416d_3T2,4,2,40,3,sent,10.0599,24.3664,2,2,1
FED_20190416d_3T2,4,3,76,5,en,39.4815,13.3837,2,2,1
FED_20190416d_3T2,4,4,4,1,jap,57.9178,9.8213,4,4,1
FED_20190416d_3T2,4,6,22,2,jap,82.805,18.1537,2,2,1
FED_20190416d_3T2,4,7,94,6,en,105.9921,26.0985,2,2,1
FED_20190416d_3T2,4,8,58,4,sent,137.1304,14.5641,2,3,0
FED_20190416d_3T2,12,2,84,5,jap,10.0478,50.001999999999995,2,2,1
FED_20190416d_3T2,12,3,48,3,en,65.0899,13.0901,2,2,1
FED_20190416d_3T2,12,4,12,1,sent,83.2264,50.0016,2,2,1
FED_20190416d_3T2,12,6,30,2,sent,148.287,15.662,2,2,1
FED_20190416d_3T2,12,7,66,4,en,168.9903,19.2471,1,1,1
FED_20190416d_3T2,12,8,102,6,jap,193.2944,29.6255,1,1,1
FED_20190416d_3T2,1,2,55,4,sent,10.0518,12.9623,1,3,0
FED_20190416d_3T2,1,3,19,2,jap,28.038,19.9558,2,2,1
FED_20190416d_3T2,1,4,91,6,en,53.059,20.8908,2,2,1
FED_20190416d_3T2,1,6,73,5,en,89.0313,40.6192,1,4,0
FED_20190416d_3T2,1,7,1,1,jap,134.7054,17.6091,1,4,0
FED_20190416d_3T2,1,8,37,3,sent,157.3592,50.0009,3,1,0
FED_20190416d_3T2,6,2,78,5,jap,10.0582,18.1636,3,3,1
FED_20190416d_3T2,6,3,42,3,en,33.2785,17.2018,3,3,1
FED_20190416d_3T2,6,4,6,1,sent,55.5323,15.369000000000002,3,3,1
FED_20190416d_3T2,6,6,24,2,sent,85.9872,22.8993,4,4,1
FED_20190416d_3T2,6,7,60,4,en,113.925,16.8203,3,3,1
FED_20190416d_3T2,6,8,96,6,jap,135.7952,7.9618,2,2,1
FED_20190416d_3T2,7,2,61,4,sent,10.0684,24.1838,3,4,0
FED_20190416d_3T2,7,3,25,2,jap,39.3065,27.7488,3,3,1
FED_20190416d_3T2,7,4,97,6,en,72.1118,19.0303,1,1,1
FED_20190416d_3T2,7,6,79,5,en,106.2339,40.2587,2,2,1
FED_20190416d_3T2,7,7,7,1,jap,151.5245,12.5225,3,3,1
FED_20190416d_3T2,7,8,43,3,sent,169.111,41.2291,2,2,1
FED_20190319b_3T2,8,2,44,3,sent,10.0483,11.1537,1,1,1
FED_20190319b_3T2,8,3,80,5,en,26.2339,26.0162,3,3,1
FED_20190319b_3T2,8,4,8,1,jap,57.3058,29.8808,2,2,1
FED_20190319b_3T2,8,6,26,2,jap,102.2464,49.5749,3,3,1
FED_20190319b_3T2,8,7,98,6,en,156.8719,18.8569,1,4,0
FED_20190319b_3T2,8,8,62,4,sent,180.7926,11.581,4,4,1
FED_20190319b_3T2,9,2,27,2,en,10.0669,15.0252,1,1,1
FED_20190319b_3T2,9,3,99,6,sent,30.1535,11.3004,1,1,1
FED_20190319b_3T2,9,4,63,4,jap,46.4893,26.4337,4,4,1
FED_20190319b_3T2,9,6,45,3,jap,87.9961,21.3322,1,4,0
FED_20190319b_3T2,9,7,81,5,sent,114.3838,17.0349,2,3,0
FED_20190319b_3T2,9,8,9,1,en,136.4876,14.3293,2,2,1
FED_20190319b_3T2,2,2,38,3,sent,10.0425,28.8524,2,2,1
FED_20190319b_3T2,2,3,74,5,en,43.948,12.7296,4,3,0
FED_20190319b_3T2,2,4,2,1,jap,61.7343,49.3677,2,2,1
FED_20190319b_3T2,2,6,20,2,jap,126.1946,24.9118,3,3,1
FED_20190319b_3T2,2,7,92,6,en,156.1662,19.8857,2,2,1
FED_20190319b_3T2,2,8,56,4,sent,181.1035,13.6544,2,2,1
FED_20190319b_3T2,3,2,21,2,en,10.0686,22.735,3,3,1
FED_20190319b_3T2,3,3,93,6,sent,37.8563,10.9611,3,3,1
FED_20190319b_3T2,3,4,57,4,jap,53.8756,21.1387,1,1,1
FED_20190319b_3T2,3,6,39,3,jap,90.0814,30.7108,1,1,1
FED_20190319b_3T2,3,7,75,5,sent,125.8539,9.6101,2,2,1
FED_20190319b_3T2,3,8,3,1,en,140.5062,19.0227,2,2,1
FED_20190319b_3T2,12,2,12,1,en,10.0621,20.021,2,2,1
FED_20190319b_3T2,12,3,48,3,jap,35.133,9.4817,2,2,1
FED_20190319b_3T2,12,4,84,5,sent,49.6686,17.1861,2,2,1
FED_20190319b_3T2,12,6,102,6,sent,81.9404,30.8099,1,1,1
FED_20190319b_3T2,12,7,66,4,jap,117.8129,10.2395,1,1,1
FED_20190319b_3T2,12,8,30,2,en,133.0988,20.8513,2,2,1
FED_20190319b_3T2,5,2,59,4,sent,10.0553,35.4576,1,1,1
FED_20190319b_3T2,5,3,23,2,jap,50.5618,22.7089,3,3,1
FED_20190319b_3T2,5,4,95,6,en,78.2995,7.6979999999999995,2,2,1
FED_20190319b_3T2,5,6,77,5,en,101.0867,45.0731,4,4,1
FED_20190319b_3T2,5,7,5,1,jap,151.2116,39.2375,3,3,1
FED_20190319b_3T2,5,8,41,3,sent,195.5021,50.0013,1,-1,0
FED_20190319b_3T2,4,2,76,5,jap,10.0625,29.0259,2,2,1
FED_20190319b_3T2,4,3,40,3,en,44.1512,17.5864,2,2,1
FED_20190319b_3T2,4,4,4,1,sent,66.7883,18.588,4,4,1
FED_20190319b_3T2,4,6,22,2,sent,100.4604,29.1435,2,4,0
FED_20190319b_3T2,4,7,58,4,en,134.6493,27.7459,2,2,1
FED_20190319b_3T2,4,8,94,6,jap,167.4547,16.8829,2,2,1
FED_20190319b_3T2,1,2,91,6,jap,10.0486,16.6545,2,2,1
FED_20190319b_3T2,1,3,19,2,sent,31.7353,48.8853,2,2,1
FED_20190319b_3T2,1,4,55,4,en,85.6776,7.3587,1,1,1
FED_20190319b_3T2,1,6,37,3,en,108.1144,12.4101,3,3,1
FED_20190319b_3T2,1,7,1,1,sent,125.584,19.4327,1,1,1
FED_20190319b_3T2,1,8,73,5,jap,150.0713,18.9905,1,1,1
FED_20190319b_3T2,6,2,6,1,en,10.0455,24.6807,3,3,1
FED_20190319b_3T2,6,3,42,3,jap,39.7668,12.6261,3,3,1
FED_20190319b_3T2,6,4,78,5,sent,57.453,16.0969,3,3,1
FED_20190319b_3T2,6,6,96,6,sent,88.6415,8.5765,2,2,1
FED_20190319b_3T2,6,7,60,4,jap,102.2602,12.8431,3,2,0
FED_20190319b_3T2,6,8,24,2,en,120.1633,48.2287,4,4,1
FED_20190319b_3T2,7,2,97,6,jap,10.0612,14.0486,1,1,1
FED_20190319b_3T2,7,3,25,2,sent,29.1644,45.7306,3,3,1
FED_20190319b_3T2,7,4,61,4,en,79.9391,8.1116,3,3,1
FED_20190319b_3T2,7,6,43,3,en,103.14299999999999,26.0663,2,2,1
FED_20190319b_3T2,7,7,7,1,sent,134.2649,10.5245,3,3,1
FED_20190319b_3T2,7,8,79,5,jap,149.8172,50.0001,2,2,1
FED_20190319b_3T2,10,2,82,5,jap,10.049,16.6451,2,2,1
FED_20190319b_3T2,10,3,46,3,en,31.7357,15.3878,1,1,1
FED_20190319b_3T2,10,4,10,1,sent,52.1724,10.66,2,2,1
FED_20190319b_3T2,10,6,28,2,sent,77.8935,24.2701,2,2,1
FED_20190319b_3T2,10,7,64,4,en,107.1979,39.7831,2,2,1
FED_20190319b_3T2,10,8,100,6,jap,152.0387,24.2729,2,2,1
FED_20190319b_3T2,11,2,65,4,sent,10.05,19.0921,1,1,1
FED_20190319b_3T2,11,3,29,2,jap,34.2038,33.5771,2,2,1
FED_20190319b_3T2,11,4,101,6,en,72.8435,10.7336,1,1,1
FED_20190319b_3T2,11,6,83,5,en,98.6643,25.4262,3,3,1
FED_20190319b_3T2,11,7,11,1,jap,129.1361,22.1044,1,1,1
FED_20190319b_3T2,11,8,47,3,sent,156.2904,50.0001,1,4,0
FED_20190313a_3T2,12,2,102,6,jap,10.0513,24.9655,1,1,1
FED_20190313a_3T2,12,3,30,2,sent,40.0729,10.4156,2,2,1
FED_20190313a_3T2,12,4,66,4,en,55.5251,13.6861,1,1,1
FED_20190313a_3T2,12,6,48,3,en,84.2966,10.1949,2,2,1
FED_20190313a_3T2,12,7,12,1,sent,99.5324,31.6511,2,2,1
FED_20190313a_3T2,12,8,84,5,jap,136.2383,31.9252,2,2,1
FED_20190313a_3T2,6,2,96,6,jap,10.0507,12.6049,2,2,1
FED_20190313a_3T2,6,3,24,2,sent,27.7035,19.0854,4,4,1
FED_20190313a_3T2,6,4,60,4,en,51.8406,14.562000000000001,3,3,1
FED_20190313a_3T2,6,6,42,3,en,81.4956,23.5595,3,3,1
FED_20190313a_3T2,6,7,6,1,sent,110.1168,24.5498,3,3,1
FED_20190313a_3T2,6,8,78,5,jap,139.7217,42.288000000000004,3,4,0
FED_20190313a_3T2,7,2,43,3,sent,10.0693,33.0292,2,2,1
FED_20190313a_3T2,7,3,79,5,en,48.1422,26.2454,2,4,0
FED_20190313a_3T2,7,4,7,1,jap,79.4306,8.3984,3,3,1
FED_20190313a_3T2,7,6,25,2,jap,102.9011,20.8942,3,1,0
FED_20190313a_3T2,7,7,97,6,en,128.8554,18.7802,1,1,1
FED_20190313a_3T2,7,8,61,4,sent,152.6592,30.5299,3,3,1
FED_20190313a_3T2,1,2,37,3,sent,10.0675,32.0796,3,3,1
FED_20190313a_3T2,1,3,73,5,en,47.1736,19.2268,1,1,1
FED_20190313a_3T2,1,4,1,1,jap,71.4609,17.0443,1,1,1
FED_20190313a_3T2,1,6,19,2,jap,103.5995,12.9051,2,2,1
FED_20190313a_3T2,1,7,91,6,en,121.5524,26.0558,2,2,1
FED_20190313a_3T2,1,8,55,4,sent,152.6406,28.7384,1,2,0
FED_20190313a_3T2,5,2,5,1,en,10.0502,30.0799,3,3,1
FED_20190313a_3T2,5,3,41,3,jap,45.1889,30.3593,1,1,1
FED_20190313a_3T2,5,4,77,5,sent,80.6115,31.9001,4,1,0
FED_20190313a_3T2,5,6,95,6,sent,127.6025,24.5638,2,2,1
FED_20190313a_3T2,5,7,59,4,jap,157.1905,28.3967,1,1,1
FED_20190313a_3T2,5,8,23,2,en,190.6294,18.9858,3,3,1
FED_20190313a_3T2,4,2,58,4,sent,10.0418,24.2052,2,4,0
FED_20190313a_3T2,4,3,22,2,jap,39.2966,11.9492,2,2,1
FED_20190313a_3T2,4,4,94,6,en,56.2994,14.0486,2,2,1
FED_20190313a_3T2,4,6,76,5,en,85.4207,20.5126,2,2,1
FED_20190313a_3T2,4,7,4,1,jap,110.9749,10.3549,4,1,0
FED_20190313a_3T2,4,8,40,3,sent,126.3941,19.0655,2,2,1
FED_20190313a_3T2,11,2,11,1,en,10.0552,12.3886,1,1,1
FED_20190313a_3T2,11,3,47,3,jap,27.508000000000003,48.5956,1,1,1
FED_20190313a_3T2,11,4,83,5,sent,81.15,19.114,3,1,0
FED_20190313a_3T2,11,6,101,6,sent,115.3223,12.4841,1,1,1
FED_20190313a_3T2,11,7,65,4,jap,132.8752,24.3082,1,4,0
FED_20190313a_3T2,11,8,29,2,en,162.2465,19.9552,2,2,1
FED_20190313a_3T2,10,2,64,4,sent,10.0536,16.6413,2,2,1
FED_20190313a_3T2,10,3,28,2,jap,31.7405,33.5091,2,2,1
FED_20190313a_3T2,10,4,100,6,en,70.3134,13.2922,2,2,1
FED_20190313a_3T2,10,6,82,5,en,98.6679,11.9093,2,2,1
FED_20190313a_3T2,10,7,10,1,jap,115.6374,14.7839,2,2,1
FED_20190313a_3T2,10,8,46,3,sent,135.4739,16.9008,1,1,1
FED_20190313a_3T2,2,2,20,2,en,10.0478,11.8277,3,3,1
FED_20190313a_3T2,2,3,92,6,sent,26.9341,19.0047,2,2,1
FED_20190313a_3T2,2,4,56,4,jap,50.9712,10.6119,2,2,1
FED_20190313a_3T2,2,6,38,3,jap,76.6587,12.633,2,2,1
FED_20190313a_3T2,2,7,74,5,sent,94.3449,21.2775,4,3,0
FED_20190313a_3T2,2,8,2,1,en,120.6826,27.745,2,2,1
FED_20190313a_3T2,3,2,75,5,jap,10.0501,21.1127,2,2,1
